list,trial_num_python,condition,stimulus,position,corrResp,coin_img,devalued_coin,stimulus_choice1,stimulus_choice2,position1,position2,phase,corrResp1,corrResp2,outcome,cond_val,outcome_choice1,outcome_choice2,cond_val1,cond_val2,blockLoop.thisRepN,blockLoop.thisTrialN,blockLoop.thisN,blockLoop.thisIndex,trialLoop.thisRepN,trialLoop.thisTrialN,trialLoop.thisN,trialLoop.thisIndex,choice_trialLoop.thisRepN,choice_trialLoop.thisTrialN,choice_trialLoop.thisN,choice_trialLoop.thisIndex,contingency_trialLoop.thisRepN,contingency_trialLoop.thisTrialN,contingency_trialLoop.thisN,contingency_trialLoop.thisIndex,run,event,duration,globalClock_t,routineClock_t,trial,nResp_untilRnf,resp,selected_coin,wasRnf,n_repeat_training,credits_per_rnf,cost_response,min_resp_bet_rnf,max_resp_bet_rnf,mean_resp_bet_rnf,sigma_resp_bet_rnf,min_ITI,max_ITI,min_trial_duration,max_trial_duration,schedule,participant,task_ordering,hand,date,expName,frameRate,Unnamed: 65
5.0,0.0,resp1,stim/left_resp_img.png,"[0.5, 0]",left,stim/gold_coin.png,silver,,,,,training,,,gold,val,,,,,0.0,0.0,0.0,0.0,0.0,0.0,0.0,0.0,,,,,,,,,0.0,instr_before_block,6.0,0.0043966491939499,,,,,,,5.0,40.0,1.0,5.0,30.0,15.0,5.0,15.0,30.0,30.0,60.0,RR,5.0,1.0,right,2020_Feb_21_1419,habits_v_MRI,59.85030829226093,
5.0,0.0,resp1,stim/left_resp_img.png,"[0.5, 0]",left,stim/gold_coin.png,silver,,,,,training,,,gold,val,,,,,0.0,0.0,0.0,0.0,0.0,0.0,0.0,0.0,,,,,,,,,0.0,training_period_start,37.5,6.044520141324028,0.0,0.0,8.0,,,,5.0,40.0,1.0,5.0,30.0,15.0,5.0,15.0,30.0,30.0,60.0,RR,5.0,1.0,right,2020_Feb_21_1419,habits_v_MRI,59.85030829226093,
5.0,0.0,resp1,stim/left_resp_img.png,"[0.5, 0]",left,stim/gold_coin.png,silver,,,,,training,,,gold,val,,,,,0.0,0.0,0.0,0.0,0.0,0.0,0.0,0.0,,,,,,,,,0.0,training_resp,,7.573849952081218,1.5492230866802856,0.0,,left,gold,0.0,5.0,40.0,1.0,5.0,30.0,15.0,5.0,15.0,30.0,30.0,60.0,RR,5.0,1.0,right,2020_Feb_21_1419,habits_v_MRI,59.85030829226093,
5.0,0.0,resp1,stim/left_resp_img.png,"[0.5, 0]",left,stim/gold_coin.png,silver,,,,,training,,,gold,val,,,,,0.0,0.0,0.0,0.0,0.0,0.0,0.0,0.0,,,,,,,,,0.0,training_resp,,7.857171511626802,1.832637605373748,0.0,,left,gold,0.0,5.0,40.0,1.0,5.0,30.0,15.0,5.0,15.0,30.0,30.0,60.0,RR,5.0,1.0,right,2020_Feb_21_1419,habits_v_MRI,59.85030829226093,
5.0,0.0,resp1,stim/left_resp_img.png,"[0.5, 0]",left,stim/gold_coin.png,silver,,,,,training,,,gold,val,,,,,0.0,0.0,0.0,0.0,0.0,0.0,0.0,0.0,,,,,,,,,0.0,training_resp,,8.173902971087955,2.1493822609772906,0.0,,left,gold,0.0,5.0,40.0,1.0,5.0,30.0,15.0,5.0,15.0,30.0,30.0,60.0,RR,5.0,1.0,right,2020_Feb_21_1419,habits_v_MRI,59.85030829226093,
5.0,0.0,resp1,stim/left_resp_img.png,"[0.5, 0]",left,stim/gold_coin.png,silver,,,,,training,,,gold,val,,,,,0.0,0.0,0.0,0.0,0.0,0.0,0.0,0.0,,,,,,,,,0.0,training_resp,,8.474201467004605,2.449696005671285,0.0,,left,gold,0.0,5.0,40.0,1.0,5.0,30.0,15.0,5.0,15.0,30.0,30.0,60.0,RR,5.0,1.0,right,2020_Feb_21_1419,habits_v_MRI,59.85030829226093,
5.0,0.0,resp1,stim/left_resp_img.png,"[0.5, 0]",left,stim/gold_coin.png,silver,,,,,training,,,gold,val,,,,,0.0,0.0,0.0,0.0,0.0,0.0,0.0,0.0,,,,,,,,,0.0,training_resp,,8.707588963094167,2.68296209757682,0.0,,left,gold,0.0,5.0,40.0,1.0,5.0,30.0,15.0,5.0,15.0,30.0,30.0,60.0,RR,5.0,1.0,right,2020_Feb_21_1419,habits_v_MRI,59.85030829226093,
5.0,0.0,resp1,stim/left_resp_img.png,"[0.5, 0]",left,stim/gold_coin.png,silver,,,,,training,,,gold,val,,,,,0.0,0.0,0.0,0.0,0.0,0.0,0.0,0.0,,,,,,,,,0.0,training_resp,,9.041085928096436,3.016449971939437,0.0,,left,gold,0.0,5.0,40.0,1.0,5.0,30.0,15.0,5.0,15.0,30.0,30.0,60.0,RR,5.0,1.0,right,2020_Feb_21_1419,habits_v_MRI,59.85030829226093,
5.0,0.0,resp1,stim/left_resp_img.png,"[0.5, 0]",left,stim/gold_coin.png,silver,,,,,training,,,gold,val,,,,,0.0,0.0,0.0,0.0,0.0,0.0,0.0,0.0,,,,,,,,,0.0,training_resp,,9.391227580956183,3.366597489803098,0.0,,left,gold,0.0,5.0,40.0,1.0,5.0,30.0,15.0,5.0,15.0,30.0,30.0,60.0,RR,5.0,1.0,right,2020_Feb_21_1419,habits_v_MRI,59.85030829226093,
5.0,0.0,resp1,stim/left_resp_img.png,"[0.5, 0]",left,stim/gold_coin.png,silver,,,,,training,,,gold,val,,,,,0.0,0.0,0.0,0.0,0.0,0.0,0.0,0.0,,,,,,,,,0.0,training_resp,,9.624721818836406,3.5999609394930303,0.0,14.0,left,gold,1.0,5.0,40.0,1.0,5.0,30.0,15.0,5.0,15.0,30.0,30.0,60.0,RR,5.0,1.0,right,2020_Feb_21_1419,habits_v_MRI,59.85030829226093,
5.0,0.0,resp1,stim/left_resp_img.png,"[0.5, 0]",left,stim/gold_coin.png,silver,,,,,training,,,gold,val,,,,,0.0,0.0,0.0,0.0,0.0,0.0,0.0,0.0,,,,,,,,,0.0,training_resp,,10.341446299105884,4.316807996947318,0.0,,left,gold,0.0,5.0,40.0,1.0,5.0,30.0,15.0,5.0,15.0,30.0,30.0,60.0,RR,5.0,1.0,right,2020_Feb_21_1419,habits_v_MRI,59.85030829226093,
5.0,0.0,resp1,stim/left_resp_img.png,"[0.5, 0]",left,stim/gold_coin.png,silver,,,,,training,,,gold,val,,,,,0.0,0.0,0.0,0.0,0.0,0.0,0.0,0.0,,,,,,,,,0.0,training_resp,,10.858307549613528,4.833662502816878,0.0,,left,gold,0.0,5.0,40.0,1.0,5.0,30.0,15.0,5.0,15.0,30.0,30.0,60.0,RR,5.0,1.0,right,2020_Feb_21_1419,habits_v_MRI,59.85030829226093,
5.0,0.0,resp1,stim/left_resp_img.png,"[0.5, 0]",left,stim/gold_coin.png,silver,,,,,training,,,gold,val,,,,,0.0,0.0,0.0,0.0,0.0,0.0,0.0,0.0,,,,,,,,,0.0,training_resp,,11.375158536597157,5.350527858943678,0.0,,left,gold,0.0,5.0,40.0,1.0,5.0,30.0,15.0,5.0,15.0,30.0,30.0,60.0,RR,5.0,1.0,right,2020_Feb_21_1419,habits_v_MRI,59.85030829226093,
5.0,0.0,resp1,stim/left_resp_img.png,"[0.5, 0]",left,stim/gold_coin.png,silver,,,,,training,,,gold,val,,,,,0.0,0.0,0.0,0.0,0.0,0.0,0.0,0.0,,,,,,,,,0.0,training_resp,,11.741900010500103,5.717270212597214,0.0,,left,gold,0.0,5.0,40.0,1.0,5.0,30.0,15.0,5.0,15.0,30.0,30.0,60.0,RR,5.0,1.0,right,2020_Feb_21_1419,habits_v_MRI,59.85030829226093,
5.0,0.0,resp1,stim/left_resp_img.png,"[0.5, 0]",left,stim/gold_coin.png,silver,,,,,training,,,gold,val,,,,,0.0,0.0,0.0,0.0,0.0,0.0,0.0,0.0,,,,,,,,,0.0,training_resp,,12.04260260052979,6.017728821258061,0.0,,left,gold,0.0,5.0,40.0,1.0,5.0,30.0,15.0,5.0,15.0,30.0,30.0,60.0,RR,5.0,1.0,right,2020_Feb_21_1419,habits_v_MRI,59.85030829226093,
5.0,0.0,resp1,stim/left_resp_img.png,"[0.5, 0]",left,stim/gold_coin.png,silver,,,,,training,,,gold,val,,,,,0.0,0.0,0.0,0.0,0.0,0.0,0.0,0.0,,,,,,,,,0.0,training_resp,,12.358902400825173,6.334255301277153,0.0,,left,gold,0.0,5.0,40.0,1.0,5.0,30.0,15.0,5.0,15.0,30.0,30.0,60.0,RR,5.0,1.0,right,2020_Feb_21_1419,habits_v_MRI,59.85030829226093,
5.0,0.0,resp1,stim/left_resp_img.png,"[0.5, 0]",left,stim/gold_coin.png,silver,,,,,training,,,gold,val,,,,,0.0,0.0,0.0,0.0,0.0,0.0,0.0,0.0,,,,,,,,,0.0,training_resp,,12.675486943684518,6.650837204884738,0.0,,left,gold,0.0,5.0,40.0,1.0,5.0,30.0,15.0,5.0,15.0,30.0,30.0,60.0,RR,5.0,1.0,right,2020_Feb_21_1419,habits_v_MRI,59.85030829226093,
5.0,0.0,resp1,stim/left_resp_img.png,"[0.5, 0]",left,stim/gold_coin.png,silver,,,,,training,,,gold,val,,,,,0.0,0.0,0.0,0.0,0.0,0.0,0.0,0.0,,,,,,,,,0.0,training_resp,,13.075761481304651,7.051009399467148,0.0,,left,gold,0.0,5.0,40.0,1.0,5.0,30.0,15.0,5.0,15.0,30.0,30.0,60.0,RR,5.0,1.0,right,2020_Feb_21_1419,habits_v_MRI,59.85030829226093,
5.0,0.0,resp1,stim/left_resp_img.png,"[0.5, 0]",left,stim/gold_coin.png,silver,,,,,training,,,gold,val,,,,,0.0,0.0,0.0,0.0,0.0,0.0,0.0,0.0,,,,,,,,,0.0,training_resp,,13.376274047419429,7.351398508646525,0.0,,left,gold,0.0,5.0,40.0,1.0,5.0,30.0,15.0,5.0,15.0,30.0,30.0,60.0,RR,5.0,1.0,right,2020_Feb_21_1419,habits_v_MRI,59.85030829226093,
5.0,0.0,resp1,stim/left_resp_img.png,"[0.5, 0]",left,stim/gold_coin.png,silver,,,,,training,,,gold,val,,,,,0.0,0.0,0.0,0.0,0.0,0.0,0.0,0.0,,,,,,,,,0.0,training_resp,,13.62584817968309,7.601170875830576,0.0,,left,gold,0.0,5.0,40.0,1.0,5.0,30.0,15.0,5.0,15.0,30.0,30.0,60.0,RR,5.0,1.0,right,2020_Feb_21_1419,habits_v_MRI,59.85030829226093,
5.0,0.0,resp1,stim/left_resp_img.png,"[0.5, 0]",left,stim/gold_coin.png,silver,,,,,training,,,gold,val,,,,,0.0,0.0,0.0,0.0,0.0,0.0,0.0,0.0,,,,,,,,,0.0,training_resp,,14.10947958379984,8.084738058736548,0.0,,left,gold,0.0,5.0,40.0,1.0,5.0,30.0,15.0,5.0,15.0,30.0,30.0,60.0,RR,5.0,1.0,right,2020_Feb_21_1419,habits_v_MRI,59.85030829226093,
5.0,0.0,resp1,stim/left_resp_img.png,"[0.5, 0]",left,stim/gold_coin.png,silver,,,,,training,,,gold,val,,,,,0.0,0.0,0.0,0.0,0.0,0.0,0.0,0.0,,,,,,,,,0.0,training_resp,,14.459426227491347,8.434750683023594,0.0,,left,gold,0.0,5.0,40.0,1.0,5.0,30.0,15.0,5.0,15.0,30.0,30.0,60.0,RR,5.0,1.0,right,2020_Feb_21_1419,habits_v_MRI,59.85030829226093,
5.0,0.0,resp1,stim/left_resp_img.png,"[0.5, 0]",left,stim/gold_coin.png,silver,,,,,training,,,gold,val,,,,,0.0,0.0,0.0,0.0,0.0,0.0,0.0,0.0,,,,,,,,,0.0,training_resp,,15.476973822223954,9.45231851178687,0.0,,left,gold,0.0,5.0,40.0,1.0,5.0,30.0,15.0,5.0,15.0,30.0,30.0,60.0,RR,5.0,1.0,right,2020_Feb_21_1419,habits_v_MRI,59.85030829226093,
5.0,0.0,resp1,stim/left_resp_img.png,"[0.5, 0]",left,stim/gold_coin.png,silver,,,,,training,,,gold,val,,,,,0.0,0.0,0.0,0.0,0.0,0.0,0.0,0.0,,,,,,,,,0.0,training_resp,,15.82707559352275,9.80223905656021,0.0,14.0,left,gold,1.0,5.0,40.0,1.0,5.0,30.0,15.0,5.0,15.0,30.0,30.0,60.0,RR,5.0,1.0,right,2020_Feb_21_1419,habits_v_MRI,59.85030829226093,
5.0,0.0,resp1,stim/left_resp_img.png,"[0.5, 0]",left,stim/gold_coin.png,silver,,,,,training,,,gold,val,,,,,0.0,0.0,0.0,0.0,0.0,0.0,0.0,0.0,,,,,,,,,0.0,training_resp,,16.610002296161838,10.58536194136832,0.0,,left,gold,0.0,5.0,40.0,1.0,5.0,30.0,15.0,5.0,15.0,30.0,30.0,60.0,RR,5.0,1.0,right,2020_Feb_21_1419,habits_v_MRI,59.85030829226093,
5.0,0.0,resp1,stim/left_resp_img.png,"[0.5, 0]",left,stim/gold_coin.png,silver,,,,,training,,,gold,val,,,,,0.0,0.0,0.0,0.0,0.0,0.0,0.0,0.0,,,,,,,,,0.0,training_resp,,16.960002310806885,10.935354331624694,0.0,,left,gold,0.0,5.0,40.0,1.0,5.0,30.0,15.0,5.0,15.0,30.0,30.0,60.0,RR,5.0,1.0,right,2020_Feb_21_1419,habits_v_MRI,59.85030829226093,
5.0,0.0,resp1,stim/left_resp_img.png,"[0.5, 0]",left,stim/gold_coin.png,silver,,,,,training,,,gold,val,,,,,0.0,0.0,0.0,0.0,0.0,0.0,0.0,0.0,,,,,,,,,0.0,training_resp,,17.460616809432395,11.435861208708957,0.0,,left,gold,0.0,5.0,40.0,1.0,5.0,30.0,15.0,5.0,15.0,30.0,30.0,60.0,RR,5.0,1.0,right,2020_Feb_21_1419,habits_v_MRI,59.85030829226093,
5.0,0.0,resp1,stim/left_resp_img.png,"[0.5, 0]",left,stim/gold_coin.png,silver,,,,,training,,,gold,val,,,,,0.0,0.0,0.0,0.0,0.0,0.0,0.0,0.0,,,,,,,,,0.0,training_resp,,18.04423481214326,12.019439329742454,0.0,,left,gold,0.0,5.0,40.0,1.0,5.0,30.0,15.0,5.0,15.0,30.0,30.0,60.0,RR,5.0,1.0,right,2020_Feb_21_1419,habits_v_MRI,59.85030829226093,
5.0,0.0,resp1,stim/left_resp_img.png,"[0.5, 0]",left,stim/gold_coin.png,silver,,,,,training,,,gold,val,,,,,0.0,0.0,0.0,0.0,0.0,0.0,0.0,0.0,,,,,,,,,0.0,training_resp,,18.66039323818404,12.635750537272544,0.0,,left,gold,0.0,5.0,40.0,1.0,5.0,30.0,15.0,5.0,15.0,30.0,30.0,60.0,RR,5.0,1.0,right,2020_Feb_21_1419,habits_v_MRI,59.85030829226093,
5.0,0.0,resp1,stim/left_resp_img.png,"[0.5, 0]",left,stim/gold_coin.png,silver,,,,,training,,,gold,val,,,,,0.0,0.0,0.0,0.0,0.0,0.0,0.0,0.0,,,,,,,,,0.0,training_resp,,19.04422073625028,13.019207664765418,0.0,,left,gold,0.0,5.0,40.0,1.0,5.0,30.0,15.0,5.0,15.0,30.0,30.0,60.0,RR,5.0,1.0,right,2020_Feb_21_1419,habits_v_MRI,59.85030829226093,
5.0,0.0,resp1,stim/left_resp_img.png,"[0.5, 0]",left,stim/gold_coin.png,silver,,,,,training,,,gold,val,,,,,0.0,0.0,0.0,0.0,0.0,0.0,0.0,0.0,,,,,,,,,0.0,training_resp,,19.47725269990042,13.452615863992833,0.0,,left,gold,0.0,5.0,40.0,1.0,5.0,30.0,15.0,5.0,15.0,30.0,30.0,60.0,RR,5.0,1.0,right,2020_Feb_21_1419,habits_v_MRI,59.85030829226093,
5.0,0.0,resp1,stim/left_resp_img.png,"[0.5, 0]",left,stim/gold_coin.png,silver,,,,,training,,,gold,val,,,,,0.0,0.0,0.0,0.0,0.0,0.0,0.0,0.0,,,,,,,,,0.0,training_resp,,19.844149301410653,13.819419212988578,0.0,,left,gold,0.0,5.0,40.0,1.0,5.0,30.0,15.0,5.0,15.0,30.0,30.0,60.0,RR,5.0,1.0,right,2020_Feb_21_1419,habits_v_MRI,59.85030829226093,
5.0,0.0,resp1,stim/left_resp_img.png,"[0.5, 0]",left,stim/gold_coin.png,silver,,,,,training,,,gold,val,,,,,0.0,0.0,0.0,0.0,0.0,0.0,0.0,0.0,,,,,,,,,0.0,training_resp,,20.328203860553916,14.303367323591374,0.0,,left,gold,0.0,5.0,40.0,1.0,5.0,30.0,15.0,5.0,15.0,30.0,30.0,60.0,RR,5.0,1.0,right,2020_Feb_21_1419,habits_v_MRI,59.85030829226093,
5.0,0.0,resp1,stim/left_resp_img.png,"[0.5, 0]",left,stim/gold_coin.png,silver,,,,,training,,,gold,val,,,,,0.0,0.0,0.0,0.0,0.0,0.0,0.0,0.0,,,,,,,,,0.0,training_resp,,20.911104874801826,14.886451030615715,0.0,,left,gold,0.0,5.0,40.0,1.0,5.0,30.0,15.0,5.0,15.0,30.0,30.0,60.0,RR,5.0,1.0,right,2020_Feb_21_1419,habits_v_MRI,59.85030829226093,
5.0,0.0,resp1,stim/left_resp_img.png,"[0.5, 0]",left,stim/gold_coin.png,silver,,,,,training,,,gold,val,,,,,0.0,0.0,0.0,0.0,0.0,0.0,0.0,0.0,,,,,,,,,0.0,training_resp,,21.561158817494288,15.53651904920116,0.0,,left,gold,0.0,5.0,40.0,1.0,5.0,30.0,15.0,5.0,15.0,30.0,30.0,60.0,RR,5.0,1.0,right,2020_Feb_21_1419,habits_v_MRI,59.85030829226093,
5.0,0.0,resp1,stim/left_resp_img.png,"[0.5, 0]",left,stim/gold_coin.png,silver,,,,,training,,,gold,val,,,,,0.0,0.0,0.0,0.0,0.0,0.0,0.0,0.0,,,,,,,,,0.0,training_resp,,22.09530051494949,16.070506205549464,0.0,,left,gold,0.0,5.0,40.0,1.0,5.0,30.0,15.0,5.0,15.0,30.0,30.0,60.0,RR,5.0,1.0,right,2020_Feb_21_1419,habits_v_MRI,59.85030829226093,
5.0,0.0,resp1,stim/left_resp_img.png,"[0.5, 0]",left,stim/gold_coin.png,silver,,,,,training,,,gold,val,,,,,0.0,0.0,0.0,0.0,0.0,0.0,0.0,0.0,,,,,,,,,0.0,training_resp,,22.611658260808326,16.5869750919519,0.0,,left,gold,0.0,5.0,40.0,1.0,5.0,30.0,15.0,5.0,15.0,30.0,30.0,60.0,RR,5.0,1.0,right,2020_Feb_21_1419,habits_v_MRI,59.85030829226093,
5.0,0.0,resp1,stim/left_resp_img.png,"[0.5, 0]",left,stim/gold_coin.png,silver,,,,,training,,,gold,val,,,,,0.0,0.0,0.0,0.0,0.0,0.0,0.0,0.0,,,,,,,,,0.0,training_resp,,23.028453149599954,17.003760890103877,0.0,16.0,left,gold,1.0,5.0,40.0,1.0,5.0,30.0,15.0,5.0,15.0,30.0,30.0,60.0,RR,5.0,1.0,right,2020_Feb_21_1419,habits_v_MRI,59.85030829226093,
5.0,0.0,resp1,stim/left_resp_img.png,"[0.5, 0]",left,stim/gold_coin.png,silver,,,,,training,,,gold,val,,,,,0.0,0.0,0.0,0.0,0.0,0.0,0.0,0.0,,,,,,,,,0.0,training_resp,,23.728597163106315,17.703933935030364,0.0,,left,gold,0.0,5.0,40.0,1.0,5.0,30.0,15.0,5.0,15.0,30.0,30.0,60.0,RR,5.0,1.0,right,2020_Feb_21_1419,habits_v_MRI,59.85030829226093,
5.0,0.0,resp1,stim/left_resp_img.png,"[0.5, 0]",left,stim/gold_coin.png,silver,,,,,training,,,gold,val,,,,,0.0,0.0,0.0,0.0,0.0,0.0,0.0,0.0,,,,,,,,,0.0,training_resp,,24.111998280510303,18.087355579598807,0.0,,left,gold,0.0,5.0,40.0,1.0,5.0,30.0,15.0,5.0,15.0,30.0,30.0,60.0,RR,5.0,1.0,right,2020_Feb_21_1419,habits_v_MRI,59.85030829226093,
5.0,0.0,resp1,stim/left_resp_img.png,"[0.5, 0]",left,stim/gold_coin.png,silver,,,,,training,,,gold,val,,,,,0.0,0.0,0.0,0.0,0.0,0.0,0.0,0.0,,,,,,,,,0.0,training_resp,,24.51209393760655,18.487455048947595,0.0,,left,gold,0.0,5.0,40.0,1.0,5.0,30.0,15.0,5.0,15.0,30.0,30.0,60.0,RR,5.0,1.0,right,2020_Feb_21_1419,habits_v_MRI,59.85030829226093,
5.0,0.0,resp1,stim/left_resp_img.png,"[0.5, 0]",left,stim/gold_coin.png,silver,,,,,training,,,gold,val,,,,,0.0,0.0,0.0,0.0,0.0,0.0,0.0,0.0,,,,,,,,,0.0,training_resp,,24.978939895285293,18.95429367548786,0.0,,left,gold,0.0,5.0,40.0,1.0,5.0,30.0,15.0,5.0,15.0,30.0,30.0,60.0,RR,5.0,1.0,right,2020_Feb_21_1419,habits_v_MRI,59.85030829226093,
5.0,0.0,resp1,stim/left_resp_img.png,"[0.5, 0]",left,stim/gold_coin.png,silver,,,,,training,,,gold,val,,,,,0.0,0.0,0.0,0.0,0.0,0.0,0.0,0.0,,,,,,,,,0.0,training_resp,,25.446193759329617,19.421551058534533,0.0,,left,gold,0.0,5.0,40.0,1.0,5.0,30.0,15.0,5.0,15.0,30.0,30.0,60.0,RR,5.0,1.0,right,2020_Feb_21_1419,habits_v_MRI,59.85030829226093,
5.0,0.0,resp1,stim/left_resp_img.png,"[0.5, 0]",left,stim/gold_coin.png,silver,,,,,training,,,gold,val,,,,,0.0,0.0,0.0,0.0,0.0,0.0,0.0,0.0,,,,,,,,,0.0,training_resp,,25.82912216288969,19.80447770259343,0.0,,left,gold,0.0,5.0,40.0,1.0,5.0,30.0,15.0,5.0,15.0,30.0,30.0,60.0,RR,5.0,1.0,right,2020_Feb_21_1419,habits_v_MRI,59.85030829226093,
5.0,0.0,resp1,stim/left_resp_img.png,"[0.5, 0]",left,stim/gold_coin.png,silver,,,,,training,,,gold,val,,,,,0.0,0.0,0.0,0.0,0.0,0.0,0.0,0.0,,,,,,,,,0.0,training_resp,,26.179213377297856,20.154573608888317,0.0,,left,gold,0.0,5.0,40.0,1.0,5.0,30.0,15.0,5.0,15.0,30.0,30.0,60.0,RR,5.0,1.0,right,2020_Feb_21_1419,habits_v_MRI,59.85030829226093,
5.0,0.0,resp1,stim/left_resp_img.png,"[0.5, 0]",left,stim/gold_coin.png,silver,,,,,training,,,gold,val,,,,,0.0,0.0,0.0,0.0,0.0,0.0,0.0,0.0,,,,,,,,,0.0,training_resp,,26.712794680031948,20.688158723991364,0.0,,left,gold,0.0,5.0,40.0,1.0,5.0,30.0,15.0,5.0,15.0,30.0,30.0,60.0,RR,5.0,1.0,right,2020_Feb_21_1419,habits_v_MRI,59.85030829226093,
5.0,0.0,resp1,stim/left_resp_img.png,"[0.5, 0]",left,stim/gold_coin.png,silver,,,,,training,,,gold,val,,,,,0.0,0.0,0.0,0.0,0.0,0.0,0.0,0.0,,,,,,,,,0.0,training_resp,,27.31300429289695,21.288355433847755,0.0,,left,gold,0.0,5.0,40.0,1.0,5.0,30.0,15.0,5.0,15.0,30.0,30.0,60.0,RR,5.0,1.0,right,2020_Feb_21_1419,habits_v_MRI,59.85030829226093,
5.0,0.0,resp1,stim/left_resp_img.png,"[0.5, 0]",left,stim/gold_coin.png,silver,,,,,training,,,gold,val,,,,,0.0,0.0,0.0,0.0,0.0,0.0,0.0,0.0,,,,,,,,,0.0,training_resp,,27.84676359652076,21.82211385772098,0.0,,left,gold,0.0,5.0,40.0,1.0,5.0,30.0,15.0,5.0,15.0,30.0,30.0,60.0,RR,5.0,1.0,right,2020_Feb_21_1419,habits_v_MRI,59.85030829226093,
5.0,0.0,resp1,stim/left_resp_img.png,"[0.5, 0]",left,stim/gold_coin.png,silver,,,,,training,,,gold,val,,,,,0.0,0.0,0.0,0.0,0.0,0.0,0.0,0.0,,,,,,,,,0.0,training_resp,,28.2632253569318,22.238579430500977,0.0,,left,gold,0.0,5.0,40.0,1.0,5.0,30.0,15.0,5.0,15.0,30.0,30.0,60.0,RR,5.0,1.0,right,2020_Feb_21_1419,habits_v_MRI,59.85030829226093,
5.0,0.0,resp1,stim/left_resp_img.png,"[0.5, 0]",left,stim/gold_coin.png,silver,,,,,training,,,gold,val,,,,,0.0,0.0,0.0,0.0,0.0,0.0,0.0,0.0,,,,,,,,,0.0,training_resp,,29.01421279227361,22.989385345950723,0.0,,left,gold,0.0,5.0,40.0,1.0,5.0,30.0,15.0,5.0,15.0,30.0,30.0,60.0,RR,5.0,1.0,right,2020_Feb_21_1419,habits_v_MRI,59.85030829226093,
5.0,0.0,resp1,stim/left_resp_img.png,"[0.5, 0]",left,stim/gold_coin.png,silver,,,,,training,,,gold,val,,,,,0.0,0.0,0.0,0.0,0.0,0.0,0.0,0.0,,,,,,,,,0.0,training_resp,,29.71371371555142,23.6890610443661,0.0,,left,gold,0.0,5.0,40.0,1.0,5.0,30.0,15.0,5.0,15.0,30.0,30.0,60.0,RR,5.0,1.0,right,2020_Feb_21_1419,habits_v_MRI,59.85030829226093,
5.0,0.0,resp1,stim/left_resp_img.png,"[0.5, 0]",left,stim/gold_coin.png,silver,,,,,training,,,gold,val,,,,,0.0,0.0,0.0,0.0,0.0,0.0,0.0,0.0,,,,,,,,,0.0,training_resp,,30.363916334346868,24.339262196910568,0.0,,left,gold,0.0,5.0,40.0,1.0,5.0,30.0,15.0,5.0,15.0,30.0,30.0,60.0,RR,5.0,1.0,right,2020_Feb_21_1419,habits_v_MRI,59.85030829226093,
5.0,0.0,resp1,stim/left_resp_img.png,"[0.5, 0]",left,stim/gold_coin.png,silver,,,,,training,,,gold,val,,,,,0.0,0.0,0.0,0.0,0.0,0.0,0.0,0.0,,,,,,,,,0.0,training_resp,,30.730606196913868,24.70597082725726,0.0,,left,gold,0.0,5.0,40.0,1.0,5.0,30.0,15.0,5.0,15.0,30.0,30.0,60.0,RR,5.0,1.0,right,2020_Feb_21_1419,habits_v_MRI,59.85030829226093,
5.0,0.0,resp1,stim/left_resp_img.png,"[0.5, 0]",left,stim/gold_coin.png,silver,,,,,training,,,gold,val,,,,,0.0,0.0,0.0,0.0,0.0,0.0,0.0,0.0,,,,,,,,,0.0,training_resp,,30.964103953680024,24.939442485105246,0.0,9.0,left,gold,1.0,5.0,40.0,1.0,5.0,30.0,15.0,5.0,15.0,30.0,30.0,60.0,RR,5.0,1.0,right,2020_Feb_21_1419,habits_v_MRI,59.85030829226093,
5.0,0.0,resp1,stim/left_resp_img.png,"[0.5, 0]",left,stim/gold_coin.png,silver,,,,,training,,,gold,val,,,,,0.0,0.0,0.0,0.0,0.0,0.0,0.0,0.0,,,,,,,,,0.0,training_resp,,31.531419194303453,25.506657435325906,0.0,,left,gold,0.0,5.0,40.0,1.0,5.0,30.0,15.0,5.0,15.0,30.0,30.0,60.0,RR,5.0,1.0,right,2020_Feb_21_1419,habits_v_MRI,59.85030829226093,
5.0,0.0,resp1,stim/left_resp_img.png,"[0.5, 0]",left,stim/gold_coin.png,silver,,,,,training,,,gold,val,,,,,0.0,0.0,0.0,0.0,0.0,0.0,0.0,0.0,,,,,,,,,0.0,training_resp,,31.84789552912116,25.823238459182903,0.0,,left,gold,0.0,5.0,40.0,1.0,5.0,30.0,15.0,5.0,15.0,30.0,30.0,60.0,RR,5.0,1.0,right,2020_Feb_21_1419,habits_v_MRI,59.85030829226093,
5.0,0.0,resp1,stim/left_resp_img.png,"[0.5, 0]",left,stim/gold_coin.png,silver,,,,,training,,,gold,val,,,,,0.0,0.0,0.0,0.0,0.0,0.0,0.0,0.0,,,,,,,,,0.0,training_resp,,32.16456570010632,26.139798076124865,0.0,,left,gold,0.0,5.0,40.0,1.0,5.0,30.0,15.0,5.0,15.0,30.0,30.0,60.0,RR,5.0,1.0,right,2020_Feb_21_1419,habits_v_MRI,59.85030829226093,
5.0,0.0,resp1,stim/left_resp_img.png,"[0.5, 0]",left,stim/gold_coin.png,silver,,,,,training,,,gold,val,,,,,0.0,0.0,0.0,0.0,0.0,0.0,0.0,0.0,,,,,,,,,0.0,training_resp,,32.44835029623937,26.423580619622957,0.0,,left,gold,0.0,5.0,40.0,1.0,5.0,30.0,15.0,5.0,15.0,30.0,30.0,60.0,RR,5.0,1.0,right,2020_Feb_21_1419,habits_v_MRI,59.85030829226093,
5.0,0.0,resp1,stim/left_resp_img.png,"[0.5, 0]",left,stim/gold_coin.png,silver,,,,,training,,,gold,val,,,,,0.0,0.0,0.0,0.0,0.0,0.0,0.0,0.0,,,,,,,,,0.0,training_resp,,33.09868898161221,27.07372429582756,0.0,,left,gold,0.0,5.0,40.0,1.0,5.0,30.0,15.0,5.0,15.0,30.0,30.0,60.0,RR,5.0,1.0,right,2020_Feb_21_1419,habits_v_MRI,59.85030829226093,
5.0,0.0,resp1,stim/left_resp_img.png,"[0.5, 0]",left,stim/gold_coin.png,silver,,,,,training,,,gold,val,,,,,0.0,0.0,0.0,0.0,0.0,0.0,0.0,0.0,,,,,,,,,0.0,training_resp,,33.68152548163198,27.65684348565992,0.0,,left,gold,0.0,5.0,40.0,1.0,5.0,30.0,15.0,5.0,15.0,30.0,30.0,60.0,RR,5.0,1.0,right,2020_Feb_21_1419,habits_v_MRI,59.85030829226093,
5.0,0.0,resp1,stim/left_resp_img.png,"[0.5, 0]",left,stim/gold_coin.png,silver,,,,,training,,,gold,val,,,,,0.0,0.0,0.0,0.0,0.0,0.0,0.0,0.0,,,,,,,,,0.0,training_resp,,33.99829858215526,27.973655588109978,0.0,,left,gold,0.0,5.0,40.0,1.0,5.0,30.0,15.0,5.0,15.0,30.0,30.0,60.0,RR,5.0,1.0,right,2020_Feb_21_1419,habits_v_MRI,59.85030829226093,
5.0,0.0,resp1,stim/left_resp_img.png,"[0.5, 0]",left,stim/gold_coin.png,silver,,,,,training,,,gold,val,,,,,0.0,0.0,0.0,0.0,0.0,0.0,0.0,0.0,,,,,,,,,0.0,training_resp,,34.29845778585877,28.273716847412288,0.0,,left,gold,0.0,5.0,40.0,1.0,5.0,30.0,15.0,5.0,15.0,30.0,30.0,60.0,RR,5.0,1.0,right,2020_Feb_21_1419,habits_v_MRI,59.85030829226093,
5.0,0.0,resp1,stim/left_resp_img.png,"[0.5, 0]",left,stim/gold_coin.png,silver,,,,,training,,,gold,val,,,,,0.0,0.0,0.0,0.0,0.0,0.0,0.0,0.0,,,,,,,,,0.0,training_resp,,34.61507370613981,28.590441562235355,0.0,6.0,left,gold,1.0,5.0,40.0,1.0,5.0,30.0,15.0,5.0,15.0,30.0,30.0,60.0,RR,5.0,1.0,right,2020_Feb_21_1419,habits_v_MRI,59.85030829226093,
5.0,0.0,resp1,stim/left_resp_img.png,"[0.5, 0]",left,stim/gold_coin.png,silver,,,,,training,,,gold,val,,,,,0.0,0.0,0.0,0.0,0.0,0.0,0.0,0.0,,,,,,,,,0.0,training_resp,,35.24930991709698,29.22447924502194,0.0,,left,gold,0.0,5.0,40.0,1.0,5.0,30.0,15.0,5.0,15.0,30.0,30.0,60.0,RR,5.0,1.0,right,2020_Feb_21_1419,habits_v_MRI,59.85030829226093,
5.0,0.0,resp1,stim/left_resp_img.png,"[0.5, 0]",left,stim/gold_coin.png,silver,,,,,training,,,gold,val,,,,,0.0,0.0,0.0,0.0,0.0,0.0,0.0,0.0,,,,,,,,,0.0,training_resp,,36.16627474233974,30.1414264756022,0.0,,left,gold,0.0,5.0,40.0,1.0,5.0,30.0,15.0,5.0,15.0,30.0,30.0,60.0,RR,5.0,1.0,right,2020_Feb_21_1419,habits_v_MRI,59.85030829226093,
5.0,0.0,resp1,stim/left_resp_img.png,"[0.5, 0]",left,stim/gold_coin.png,silver,,,,,training,,,gold,val,,,,,0.0,0.0,0.0,0.0,0.0,0.0,0.0,0.0,,,,,,,,,0.0,training_resp,,36.882527975016274,30.857869145693257,0.0,,left,gold,0.0,5.0,40.0,1.0,5.0,30.0,15.0,5.0,15.0,30.0,30.0,60.0,RR,5.0,1.0,right,2020_Feb_21_1419,habits_v_MRI,59.85030829226093,
5.0,0.0,resp1,stim/left_resp_img.png,"[0.5, 0]",left,stim/gold_coin.png,silver,,,,,training,,,gold,val,,,,,0.0,0.0,0.0,0.0,0.0,0.0,0.0,0.0,,,,,,,,,0.0,training_resp,,37.38275186903775,31.358107995125465,0.0,,left,gold,0.0,5.0,40.0,1.0,5.0,30.0,15.0,5.0,15.0,30.0,30.0,60.0,RR,5.0,1.0,right,2020_Feb_21_1419,habits_v_MRI,59.85030829226093,
5.0,0.0,resp1,stim/left_resp_img.png,"[0.5, 0]",left,stim/gold_coin.png,silver,,,,,training,,,gold,val,,,,,0.0,0.0,0.0,0.0,0.0,0.0,0.0,0.0,,,,,,,,,0.0,training_resp,,38.99978123791516,32.97511009220034,0.0,,left,gold,0.0,5.0,40.0,1.0,5.0,30.0,15.0,5.0,15.0,30.0,30.0,60.0,RR,5.0,1.0,right,2020_Feb_21_1419,habits_v_MRI,59.85030829226093,
5.0,0.0,resp1,stim/left_resp_img.png,"[0.5, 0]",left,stim/gold_coin.png,silver,,,,,training,,,gold,val,,,,,0.0,0.0,0.0,0.0,0.0,0.0,0.0,0.0,,,,,,,,,0.0,training_resp,,39.66664086095989,33.641987603274174,0.0,16.0,left,gold,1.0,5.0,40.0,1.0,5.0,30.0,15.0,5.0,15.0,30.0,30.0,60.0,RR,5.0,1.0,right,2020_Feb_21_1419,habits_v_MRI,59.85030829226093,
5.0,0.0,resp1,stim/left_resp_img.png,"[0.5, 0]",left,stim/gold_coin.png,silver,,,,,training,,,gold,val,,,,,0.0,0.0,0.0,0.0,0.0,0.0,0.0,0.0,,,,,,,,,0.0,training_resp,,40.350500000524335,34.325593964080326,0.0,,left,gold,0.0,5.0,40.0,1.0,5.0,30.0,15.0,5.0,15.0,30.0,30.0,60.0,RR,5.0,1.0,right,2020_Feb_21_1419,habits_v_MRI,59.85030829226093,
5.0,0.0,resp1,stim/left_resp_img.png,"[0.5, 0]",left,stim/gold_coin.png,silver,,,,,training,,,gold,val,,,,,0.0,0.0,0.0,0.0,0.0,0.0,0.0,0.0,,,,,,,,,0.0,training_resp,,41.217047784943134,35.1923892487539,0.0,,left,gold,0.0,5.0,40.0,1.0,5.0,30.0,15.0,5.0,15.0,30.0,30.0,60.0,RR,5.0,1.0,right,2020_Feb_21_1419,habits_v_MRI,59.85030829226093,
5.0,0.0,resp1,stim/left_resp_img.png,"[0.5, 0]",left,stim/gold_coin.png,silver,,,,,training,,,gold,val,,,,,0.0,0.0,0.0,0.0,0.0,0.0,0.0,0.0,,,,,,,,,0.0,training_resp,,41.83395809563808,35.80929222831037,0.0,,left,gold,0.0,5.0,40.0,1.0,5.0,30.0,15.0,5.0,15.0,30.0,30.0,60.0,RR,5.0,1.0,right,2020_Feb_21_1419,habits_v_MRI,59.85030829226093,
5.0,0.0,resp1,stim/left_resp_img.png,"[0.5, 0]",left,stim/gold_coin.png,silver,,,,,training,,,gold,val,,,,,0.0,0.0,0.0,0.0,0.0,0.0,0.0,0.0,,,,,,,,,0.0,training_resp,,42.21806593774818,36.19328423799016,0.0,,left,gold,0.0,5.0,40.0,1.0,5.0,30.0,15.0,5.0,15.0,30.0,30.0,60.0,RR,5.0,1.0,right,2020_Feb_21_1419,habits_v_MRI,59.85030829226093,
5.0,0.0,resp1,stim/left_resp_img.png,"[0.5, 0]",left,stim/gold_coin.png,silver,,,,,training,,,gold,val,,,,,0.0,0.0,0.0,0.0,0.0,0.0,0.0,0.0,,,,,,,,,0.0,training_resp,,42.784281502943486,36.75960331922397,0.0,,left,gold,0.0,5.0,40.0,1.0,5.0,30.0,15.0,5.0,15.0,30.0,30.0,60.0,RR,5.0,1.0,right,2020_Feb_21_1419,habits_v_MRI,59.85030829226093,
5.0,0.0,resp1,stim/left_resp_img.png,"[0.5, 0]",left,stim/gold_coin.png,silver,,,,,training,,,gold,val,,,,,0.0,0.0,0.0,0.0,0.0,0.0,0.0,0.0,,,,,,,,,0.0,ITI_start,18.33333333333333,43.20207870926242,37.176307888003066,,,,,,5.0,40.0,1.0,5.0,30.0,15.0,5.0,15.0,30.0,30.0,60.0,RR,5.0,1.0,right,2020_Feb_21_1419,habits_v_MRI,59.85030829226093,
5.0,1.0,resp2,stim/right_resp_img.png,"[-0.5, 0]",right,stim/silver_coin.png,silver,,,,,training,,,silver,deval,,,,,0.0,0.0,0.0,0.0,0.0,1.0,1.0,1.0,,,,,,,,,0.0,training_period_start,37.5,61.56435432785656,0.0,1.0,11.0,,,,5.0,40.0,1.0,5.0,30.0,15.0,5.0,15.0,30.0,30.0,60.0,RR,5.0,1.0,right,2020_Feb_21_1419,habits_v_MRI,59.85030829226093,
5.0,1.0,resp2,stim/right_resp_img.png,"[-0.5, 0]",right,stim/silver_coin.png,silver,,,,,training,,,silver,deval,,,,,0.0,0.0,0.0,0.0,0.0,1.0,1.0,1.0,,,,,,,,,0.0,training_resp,,62.77381845738273,1.2322124561760577,1.0,,right,silver,0.0,5.0,40.0,1.0,5.0,30.0,15.0,5.0,15.0,30.0,30.0,60.0,RR,5.0,1.0,right,2020_Feb_21_1419,habits_v_MRI,59.85030829226093,
5.0,1.0,resp2,stim/right_resp_img.png,"[-0.5, 0]",right,stim/silver_coin.png,silver,,,,,training,,,silver,deval,,,,,0.0,0.0,0.0,0.0,0.0,1.0,1.0,1.0,,,,,,,,,0.0,training_resp,,63.14046433288604,1.5987272503552958,1.0,,right,silver,0.0,5.0,40.0,1.0,5.0,30.0,15.0,5.0,15.0,30.0,30.0,60.0,RR,5.0,1.0,right,2020_Feb_21_1419,habits_v_MRI,59.85030829226093,
5.0,1.0,resp2,stim/right_resp_img.png,"[-0.5, 0]",right,stim/silver_coin.png,silver,,,,,training,,,silver,deval,,,,,0.0,0.0,0.0,0.0,0.0,1.0,1.0,1.0,,,,,,,,,0.0,training_resp,,63.64107150037307,2.0991441005608067,1.0,,right,silver,0.0,5.0,40.0,1.0,5.0,30.0,15.0,5.0,15.0,30.0,30.0,60.0,RR,5.0,1.0,right,2020_Feb_21_1419,habits_v_MRI,59.85030829226093,
5.0,1.0,resp2,stim/right_resp_img.png,"[-0.5, 0]",right,stim/silver_coin.png,silver,,,,,training,,,silver,deval,,,,,0.0,0.0,0.0,0.0,0.0,1.0,1.0,1.0,,,,,,,,,0.0,training_resp,,64.00724994041957,2.4656020049005747,1.0,,right,silver,0.0,5.0,40.0,1.0,5.0,30.0,15.0,5.0,15.0,30.0,30.0,60.0,RR,5.0,1.0,right,2020_Feb_21_1419,habits_v_MRI,59.85030829226093,
5.0,1.0,resp2,stim/right_resp_img.png,"[-0.5, 0]",right,stim/silver_coin.png,silver,,,,,training,,,silver,deval,,,,,0.0,0.0,0.0,0.0,0.0,1.0,1.0,1.0,,,,,,,,,0.0,training_resp,,64.50734509900212,2.965593940578401,1.0,,right,silver,0.0,5.0,40.0,1.0,5.0,30.0,15.0,5.0,15.0,30.0,30.0,60.0,RR,5.0,1.0,right,2020_Feb_21_1419,habits_v_MRI,59.85030829226093,
5.0,1.0,resp2,stim/right_resp_img.png,"[-0.5, 0]",right,stim/silver_coin.png,silver,,,,,training,,,silver,deval,,,,,0.0,0.0,0.0,0.0,0.0,1.0,1.0,1.0,,,,,,,,,0.0,training_resp,,64.89154824637808,3.349461320322007,1.0,,right,silver,0.0,5.0,40.0,1.0,5.0,30.0,15.0,5.0,15.0,30.0,30.0,60.0,RR,5.0,1.0,right,2020_Feb_21_1419,habits_v_MRI,59.85030829226093,
5.0,1.0,resp2,stim/right_resp_img.png,"[-0.5, 0]",right,stim/silver_coin.png,silver,,,,,training,,,silver,deval,,,,,0.0,0.0,0.0,0.0,0.0,1.0,1.0,1.0,,,,,,,,,0.0,training_resp,,65.3576144608669,3.815867701196112,1.0,,right,silver,0.0,5.0,40.0,1.0,5.0,30.0,15.0,5.0,15.0,30.0,30.0,60.0,RR,5.0,1.0,right,2020_Feb_21_1419,habits_v_MRI,59.85030829226093,
5.0,1.0,resp2,stim/right_resp_img.png,"[-0.5, 0]",right,stim/silver_coin.png,silver,,,,,training,,,silver,deval,,,,,0.0,0.0,0.0,0.0,0.0,1.0,1.0,1.0,,,,,,,,,0.0,training_resp,,65.95780120044947,4.416048575774767,1.0,,right,silver,0.0,5.0,40.0,1.0,5.0,30.0,15.0,5.0,15.0,30.0,30.0,60.0,RR,5.0,1.0,right,2020_Feb_21_1419,habits_v_MRI,59.85030829226093,
5.0,1.0,resp2,stim/right_resp_img.png,"[-0.5, 0]",right,stim/silver_coin.png,silver,,,,,training,,,silver,deval,,,,,0.0,0.0,0.0,0.0,0.0,1.0,1.0,1.0,,,,,,,,,0.0,training_resp,,66.52457305474672,4.982823069323786,1.0,,right,silver,0.0,5.0,40.0,1.0,5.0,30.0,15.0,5.0,15.0,30.0,30.0,60.0,RR,5.0,1.0,right,2020_Feb_21_1419,habits_v_MRI,59.85030829226093,
5.0,1.0,resp2,stim/right_resp_img.png,"[-0.5, 0]",right,stim/silver_coin.png,silver,,,,,training,,,silver,deval,,,,,0.0,0.0,0.0,0.0,0.0,1.0,1.0,1.0,,,,,,,,,0.0,training_resp,,67.15891190199181,5.6169466733699664,1.0,,right,silver,0.0,5.0,40.0,1.0,5.0,30.0,15.0,5.0,15.0,30.0,30.0,60.0,RR,5.0,1.0,right,2020_Feb_21_1419,habits_v_MRI,59.85030829226093,
5.0,1.0,resp2,stim/right_resp_img.png,"[-0.5, 0]",right,stim/silver_coin.png,silver,,,,,training,,,silver,deval,,,,,0.0,0.0,0.0,0.0,0.0,1.0,1.0,1.0,,,,,,,,,0.0,training_resp,,67.72529256506823,6.183425280847587,1.0,15.0,right,silver,1.0,5.0,40.0,1.0,5.0,30.0,15.0,5.0,15.0,30.0,30.0,60.0,RR,5.0,1.0,right,2020_Feb_21_1419,habits_v_MRI,59.85030829226093,
5.0,1.0,resp2,stim/right_resp_img.png,"[-0.5, 0]",right,stim/silver_coin.png,silver,,,,,training,,,silver,deval,,,,,0.0,0.0,0.0,0.0,0.0,1.0,1.0,1.0,,,,,,,,,0.0,training_resp,,68.69198500807397,7.150210683234036,1.0,,right,silver,0.0,5.0,40.0,1.0,5.0,30.0,15.0,5.0,15.0,30.0,30.0,60.0,RR,5.0,1.0,right,2020_Feb_21_1419,habits_v_MRI,59.85030829226093,
5.0,1.0,resp2,stim/right_resp_img.png,"[-0.5, 0]",right,stim/silver_coin.png,silver,,,,,training,,,silver,deval,,,,,0.0,0.0,0.0,0.0,0.0,1.0,1.0,1.0,,,,,,,,,0.0,training_resp,,69.37544415902812,7.833690947853029,1.0,,right,silver,0.0,5.0,40.0,1.0,5.0,30.0,15.0,5.0,15.0,30.0,30.0,60.0,RR,5.0,1.0,right,2020_Feb_21_1419,habits_v_MRI,59.85030829226093,
5.0,1.0,resp2,stim/right_resp_img.png,"[-0.5, 0]",right,stim/silver_coin.png,silver,,,,,training,,,silver,deval,,,,,0.0,0.0,0.0,0.0,0.0,1.0,1.0,1.0,,,,,,,,,0.0,training_resp,,69.80894209176768,8.267192985978909,1.0,,right,silver,0.0,5.0,40.0,1.0,5.0,30.0,15.0,5.0,15.0,30.0,30.0,60.0,RR,5.0,1.0,right,2020_Feb_21_1419,habits_v_MRI,59.85030829226093,
5.0,1.0,resp2,stim/right_resp_img.png,"[-0.5, 0]",right,stim/silver_coin.png,silver,,,,,training,,,silver,deval,,,,,0.0,0.0,0.0,0.0,0.0,1.0,1.0,1.0,,,,,,,,,0.0,training_resp,,70.49250563851092,8.950747442082502,1.0,,right,silver,0.0,5.0,40.0,1.0,5.0,30.0,15.0,5.0,15.0,30.0,30.0,60.0,RR,5.0,1.0,right,2020_Feb_21_1419,habits_v_MRI,59.85030829226093,
5.0,1.0,resp2,stim/right_resp_img.png,"[-0.5, 0]",right,stim/silver_coin.png,silver,,,,,training,,,silver,deval,,,,,0.0,0.0,0.0,0.0,0.0,1.0,1.0,1.0,,,,,,,,,0.0,training_resp,,70.70923730323557,9.167497581453064,1.0,,right,silver,0.0,5.0,40.0,1.0,5.0,30.0,15.0,5.0,15.0,30.0,30.0,60.0,RR,5.0,1.0,right,2020_Feb_21_1419,habits_v_MRI,59.85030829226093,
5.0,1.0,resp2,stim/right_resp_img.png,"[-0.5, 0]",right,stim/silver_coin.png,silver,,,,,training,,,silver,deval,,,,,0.0,0.0,0.0,0.0,0.0,1.0,1.0,1.0,,,,,,,,,0.0,training_resp,,71.34270432777703,9.800951409852132,1.0,,right,silver,0.0,5.0,40.0,1.0,5.0,30.0,15.0,5.0,15.0,30.0,30.0,60.0,RR,5.0,1.0,right,2020_Feb_21_1419,habits_v_MRI,59.85030829226093,
5.0,1.0,resp2,stim/right_resp_img.png,"[-0.5, 0]",right,stim/silver_coin.png,silver,,,,,training,,,silver,deval,,,,,0.0,0.0,0.0,0.0,0.0,1.0,1.0,1.0,,,,,,,,,0.0,training_resp,,71.82626828504726,10.284518006374128,1.0,,right,silver,0.0,5.0,40.0,1.0,5.0,30.0,15.0,5.0,15.0,30.0,30.0,60.0,RR,5.0,1.0,right,2020_Feb_21_1419,habits_v_MRI,59.85030829226093,
5.0,1.0,resp2,stim/right_resp_img.png,"[-0.5, 0]",right,stim/silver_coin.png,silver,,,,,training,,,silver,deval,,,,,0.0,0.0,0.0,0.0,0.0,1.0,1.0,1.0,,,,,,,,,0.0,training_resp,,72.17631609900855,10.634553210693412,1.0,,right,silver,0.0,5.0,40.0,1.0,5.0,30.0,15.0,5.0,15.0,30.0,30.0,60.0,RR,5.0,1.0,right,2020_Feb_21_1419,habits_v_MRI,59.85030829226093,
5.0,1.0,resp2,stim/right_resp_img.png,"[-0.5, 0]",right,stim/silver_coin.png,silver,,,,,training,,,silver,deval,,,,,0.0,0.0,0.0,0.0,0.0,1.0,1.0,1.0,,,,,,,,,0.0,training_resp,,72.4432912026532,10.901344155310651,1.0,,right,silver,0.0,5.0,40.0,1.0,5.0,30.0,15.0,5.0,15.0,30.0,30.0,60.0,RR,5.0,1.0,right,2020_Feb_21_1419,habits_v_MRI,59.85030829226093,
5.0,1.0,resp2,stim/right_resp_img.png,"[-0.5, 0]",right,stim/silver_coin.png,silver,,,,,training,,,silver,deval,,,,,0.0,0.0,0.0,0.0,0.0,1.0,1.0,1.0,,,,,,,,,0.0,training_resp,,72.8431991818361,11.301426616380922,1.0,,right,silver,0.0,5.0,40.0,1.0,5.0,30.0,15.0,5.0,15.0,30.0,30.0,60.0,RR,5.0,1.0,right,2020_Feb_21_1419,habits_v_MRI,59.85030829226093,
5.0,1.0,resp2,stim/right_resp_img.png,"[-0.5, 0]",right,stim/silver_coin.png,silver,,,,,training,,,silver,deval,,,,,0.0,0.0,0.0,0.0,0.0,1.0,1.0,1.0,,,,,,,,,0.0,training_resp,,73.17663632449694,11.63489484321326,1.0,,right,silver,0.0,5.0,40.0,1.0,5.0,30.0,15.0,5.0,15.0,30.0,30.0,60.0,RR,5.0,1.0,right,2020_Feb_21_1419,habits_v_MRI,59.85030829226093,
5.0,1.0,resp2,stim/right_resp_img.png,"[-0.5, 0]",right,stim/silver_coin.png,silver,,,,,training,,,silver,deval,,,,,0.0,0.0,0.0,0.0,0.0,1.0,1.0,1.0,,,,,,,,,0.0,training_resp,,73.40999039041344,11.868252428015694,1.0,,right,silver,0.0,5.0,40.0,1.0,5.0,30.0,15.0,5.0,15.0,30.0,30.0,60.0,RR,5.0,1.0,right,2020_Feb_21_1419,habits_v_MRI,59.85030829226093,
5.0,1.0,resp2,stim/right_resp_img.png,"[-0.5, 0]",right,stim/silver_coin.png,silver,,,,,training,,,silver,deval,,,,,0.0,0.0,0.0,0.0,0.0,1.0,1.0,1.0,,,,,,,,,0.0,training_resp,,73.69339699135162,12.15165111143142,1.0,,right,silver,0.0,5.0,40.0,1.0,5.0,30.0,15.0,5.0,15.0,30.0,30.0,60.0,RR,5.0,1.0,right,2020_Feb_21_1419,habits_v_MRI,59.85030829226093,
5.0,1.0,resp2,stim/right_resp_img.png,"[-0.5, 0]",right,stim/silver_coin.png,silver,,,,,training,,,silver,deval,,,,,0.0,0.0,0.0,0.0,0.0,1.0,1.0,1.0,,,,,,,,,0.0,training_resp,,73.94374031003099,12.40176364488434,1.0,,right,silver,0.0,5.0,40.0,1.0,5.0,30.0,15.0,5.0,15.0,30.0,30.0,60.0,RR,5.0,1.0,right,2020_Feb_21_1419,habits_v_MRI,59.85030829226093,
5.0,1.0,resp2,stim/right_resp_img.png,"[-0.5, 0]",right,stim/silver_coin.png,silver,,,,,training,,,silver,deval,,,,,0.0,0.0,0.0,0.0,0.0,1.0,1.0,1.0,,,,,,,,,0.0,training_resp,,74.52699937869329,12.985251445905304,1.0,14.0,right,silver,1.0,5.0,40.0,1.0,5.0,30.0,15.0,5.0,15.0,30.0,30.0,60.0,RR,5.0,1.0,right,2020_Feb_21_1419,habits_v_MRI,59.85030829226093,
5.0,1.0,resp2,stim/right_resp_img.png,"[-0.5, 0]",right,stim/silver_coin.png,silver,,,,,training,,,silver,deval,,,,,0.0,0.0,0.0,0.0,0.0,1.0,1.0,1.0,,,,,,,,,0.0,training_resp,,75.69417468190659,14.15225989173632,1.0,,right,silver,0.0,5.0,40.0,1.0,5.0,30.0,15.0,5.0,15.0,30.0,30.0,60.0,RR,5.0,1.0,right,2020_Feb_21_1419,habits_v_MRI,59.85030829226093,
5.0,1.0,resp2,stim/right_resp_img.png,"[-0.5, 0]",right,stim/silver_coin.png,silver,,,,,training,,,silver,deval,,,,,0.0,0.0,0.0,0.0,0.0,1.0,1.0,1.0,,,,,,,,,0.0,training_resp,,76.64452594751492,15.102749569923615,1.0,,right,silver,0.0,5.0,40.0,1.0,5.0,30.0,15.0,5.0,15.0,30.0,30.0,60.0,RR,5.0,1.0,right,2020_Feb_21_1419,habits_v_MRI,59.85030829226093,
5.0,1.0,resp2,stim/right_resp_img.png,"[-0.5, 0]",right,stim/silver_coin.png,silver,,,,,training,,,silver,deval,,,,,0.0,0.0,0.0,0.0,0.0,1.0,1.0,1.0,,,,,,,,,0.0,training_resp,,78.14478913659696,16.602985193720087,1.0,,right,silver,0.0,5.0,40.0,1.0,5.0,30.0,15.0,5.0,15.0,30.0,30.0,60.0,RR,5.0,1.0,right,2020_Feb_21_1419,habits_v_MRI,59.85030829226093,
5.0,1.0,resp2,stim/right_resp_img.png,"[-0.5, 0]",right,stim/silver_coin.png,silver,,,,,training,,,silver,deval,,,,,0.0,0.0,0.0,0.0,0.0,1.0,1.0,1.0,,,,,,,,,0.0,training_resp,,79.49520966713317,17.9534365151776,1.0,,right,silver,0.0,5.0,40.0,1.0,5.0,30.0,15.0,5.0,15.0,30.0,30.0,60.0,RR,5.0,1.0,right,2020_Feb_21_1419,habits_v_MRI,59.85030829226093,
5.0,1.0,resp2,stim/right_resp_img.png,"[-0.5, 0]",right,stim/silver_coin.png,silver,,,,,training,,,silver,deval,,,,,0.0,0.0,0.0,0.0,0.0,1.0,1.0,1.0,,,,,,,,,0.0,training_resp,,79.82861572562251,18.2868639806984,1.0,,right,silver,0.0,5.0,40.0,1.0,5.0,30.0,15.0,5.0,15.0,30.0,30.0,60.0,RR,5.0,1.0,right,2020_Feb_21_1419,habits_v_MRI,59.85030829226093,
5.0,1.0,resp2,stim/right_resp_img.png,"[-0.5, 0]",right,stim/silver_coin.png,silver,,,,,training,,,silver,deval,,,,,0.0,0.0,0.0,0.0,0.0,1.0,1.0,1.0,,,,,,,,,0.0,training_resp,,80.07937809394207,18.537240436300635,1.0,,right,silver,0.0,5.0,40.0,1.0,5.0,30.0,15.0,5.0,15.0,30.0,30.0,60.0,RR,5.0,1.0,right,2020_Feb_21_1419,habits_v_MRI,59.85030829226093,
5.0,1.0,resp2,stim/right_resp_img.png,"[-0.5, 0]",right,stim/silver_coin.png,silver,,,,,training,,,silver,deval,,,,,0.0,0.0,0.0,0.0,0.0,1.0,1.0,1.0,,,,,,,,,0.0,training_resp,,80.31212777819019,18.77028160786722,1.0,,right,silver,0.0,5.0,40.0,1.0,5.0,30.0,15.0,5.0,15.0,30.0,30.0,60.0,RR,5.0,1.0,right,2020_Feb_21_1419,habits_v_MRI,59.85030829226093,
5.0,1.0,resp2,stim/right_resp_img.png,"[-0.5, 0]",right,stim/silver_coin.png,silver,,,,,training,,,silver,deval,,,,,0.0,0.0,0.0,0.0,0.0,1.0,1.0,1.0,,,,,,,,,0.0,training_resp,,80.47875236393884,18.937012348906137,1.0,,right,silver,0.0,5.0,40.0,1.0,5.0,30.0,15.0,5.0,15.0,30.0,30.0,60.0,RR,5.0,1.0,right,2020_Feb_21_1419,habits_v_MRI,59.85030829226093,
5.0,1.0,resp2,stim/right_resp_img.png,"[-0.5, 0]",right,stim/silver_coin.png,silver,,,,,training,,,silver,deval,,,,,0.0,0.0,0.0,0.0,0.0,1.0,1.0,1.0,,,,,,,,,0.0,training_resp,,80.74554917356,19.20380475977436,1.0,,right,silver,0.0,5.0,40.0,1.0,5.0,30.0,15.0,5.0,15.0,30.0,30.0,60.0,RR,5.0,1.0,right,2020_Feb_21_1419,habits_v_MRI,59.85030829226093,
5.0,1.0,resp2,stim/right_resp_img.png,"[-0.5, 0]",right,stim/silver_coin.png,silver,,,,,training,,,silver,deval,,,,,0.0,0.0,0.0,0.0,0.0,1.0,1.0,1.0,,,,,,,,,0.0,training_resp,,80.99561302806251,19.45383430446964,1.0,,right,silver,0.0,5.0,40.0,1.0,5.0,30.0,15.0,5.0,15.0,30.0,30.0,60.0,RR,5.0,1.0,right,2020_Feb_21_1419,habits_v_MRI,59.85030829226093,
5.0,1.0,resp2,stim/right_resp_img.png,"[-0.5, 0]",right,stim/silver_coin.png,silver,,,,,training,,,silver,deval,,,,,0.0,0.0,0.0,0.0,0.0,1.0,1.0,1.0,,,,,,,,,0.0,training_resp,,81.31249433674384,19.77075138920918,1.0,,right,silver,0.0,5.0,40.0,1.0,5.0,30.0,15.0,5.0,15.0,30.0,30.0,60.0,RR,5.0,1.0,right,2020_Feb_21_1419,habits_v_MRI,59.85030829226093,
5.0,1.0,resp2,stim/right_resp_img.png,"[-0.5, 0]",right,stim/silver_coin.png,silver,,,,,training,,,silver,deval,,,,,0.0,0.0,0.0,0.0,0.0,1.0,1.0,1.0,,,,,,,,,0.0,training_resp,,81.52909404051024,19.987347867223438,1.0,,right,silver,0.0,5.0,40.0,1.0,5.0,30.0,15.0,5.0,15.0,30.0,30.0,60.0,RR,5.0,1.0,right,2020_Feb_21_1419,habits_v_MRI,59.85030829226093,
5.0,1.0,resp2,stim/right_resp_img.png,"[-0.5, 0]",right,stim/silver_coin.png,silver,,,,,training,,,silver,deval,,,,,0.0,0.0,0.0,0.0,0.0,1.0,1.0,1.0,,,,,,,,,0.0,training_resp,,82.02926778921392,20.48749463725835,1.0,,right,silver,0.0,5.0,40.0,1.0,5.0,30.0,15.0,5.0,15.0,30.0,30.0,60.0,RR,5.0,1.0,right,2020_Feb_21_1419,habits_v_MRI,59.85030829226093,
5.0,1.0,resp2,stim/right_resp_img.png,"[-0.5, 0]",right,stim/silver_coin.png,silver,,,,,training,,,silver,deval,,,,,0.0,0.0,0.0,0.0,0.0,1.0,1.0,1.0,,,,,,,,,0.0,training_resp,,82.42930479696952,20.887556864181533,1.0,10.0,right,silver,1.0,5.0,40.0,1.0,5.0,30.0,15.0,5.0,15.0,30.0,30.0,60.0,RR,5.0,1.0,right,2020_Feb_21_1419,habits_v_MRI,59.85030829226093,
5.0,1.0,resp2,stim/right_resp_img.png,"[-0.5, 0]",right,stim/silver_coin.png,silver,,,,,training,,,silver,deval,,,,,0.0,0.0,0.0,0.0,0.0,1.0,1.0,1.0,,,,,,,,,0.0,training_resp,,83.0962412506342,21.55448891920969,1.0,,right,silver,0.0,5.0,40.0,1.0,5.0,30.0,15.0,5.0,15.0,30.0,30.0,60.0,RR,5.0,1.0,right,2020_Feb_21_1419,habits_v_MRI,59.85030829226093,
5.0,1.0,resp2,stim/right_resp_img.png,"[-0.5, 0]",right,stim/silver_coin.png,silver,,,,,training,,,silver,deval,,,,,0.0,0.0,0.0,0.0,0.0,1.0,1.0,1.0,,,,,,,,,0.0,training_resp,,83.39643417776097,21.85469240322709,1.0,,right,silver,0.0,5.0,40.0,1.0,5.0,30.0,15.0,5.0,15.0,30.0,30.0,60.0,RR,5.0,1.0,right,2020_Feb_21_1419,habits_v_MRI,59.85030829226093,
5.0,1.0,resp2,stim/right_resp_img.png,"[-0.5, 0]",right,stim/silver_coin.png,silver,,,,,training,,,silver,deval,,,,,0.0,0.0,0.0,0.0,0.0,1.0,1.0,1.0,,,,,,,,,0.0,training_resp,,83.8632804286899,22.32135977363214,1.0,,right,silver,0.0,5.0,40.0,1.0,5.0,30.0,15.0,5.0,15.0,30.0,30.0,60.0,RR,5.0,1.0,right,2020_Feb_21_1419,habits_v_MRI,59.85030829226093,
5.0,1.0,resp2,stim/right_resp_img.png,"[-0.5, 0]",right,stim/silver_coin.png,silver,,,,,training,,,silver,deval,,,,,0.0,0.0,0.0,0.0,0.0,1.0,1.0,1.0,,,,,,,,,0.0,training_resp,,84.19658678339329,22.654848527745344,1.0,,right,silver,0.0,5.0,40.0,1.0,5.0,30.0,15.0,5.0,15.0,30.0,30.0,60.0,RR,5.0,1.0,right,2020_Feb_21_1419,habits_v_MRI,59.85030829226093,
5.0,1.0,resp2,stim/right_resp_img.png,"[-0.5, 0]",right,stim/silver_coin.png,silver,,,,,training,,,silver,deval,,,,,0.0,0.0,0.0,0.0,0.0,1.0,1.0,1.0,,,,,,,,,0.0,training_resp,,84.54673576739151,23.004979623714465,1.0,,right,silver,0.0,5.0,40.0,1.0,5.0,30.0,15.0,5.0,15.0,30.0,30.0,60.0,RR,5.0,1.0,right,2020_Feb_21_1419,habits_v_MRI,59.85030829226093,
5.0,1.0,resp2,stim/right_resp_img.png,"[-0.5, 0]",right,stim/silver_coin.png,silver,,,,,training,,,silver,deval,,,,,0.0,0.0,0.0,0.0,0.0,1.0,1.0,1.0,,,,,,,,,0.0,training_resp,,84.96342860639561,23.421668650466017,1.0,,right,silver,0.0,5.0,40.0,1.0,5.0,30.0,15.0,5.0,15.0,30.0,30.0,60.0,RR,5.0,1.0,right,2020_Feb_21_1419,habits_v_MRI,59.85030829226093,
5.0,1.0,resp2,stim/right_resp_img.png,"[-0.5, 0]",right,stim/silver_coin.png,silver,,,,,training,,,silver,deval,,,,,0.0,0.0,0.0,0.0,0.0,1.0,1.0,1.0,,,,,,,,,0.0,training_resp,,85.29691765375901,23.75516502908431,1.0,,right,silver,0.0,5.0,40.0,1.0,5.0,30.0,15.0,5.0,15.0,30.0,30.0,60.0,RR,5.0,1.0,right,2020_Feb_21_1419,habits_v_MRI,59.85030829226093,
5.0,1.0,resp2,stim/right_resp_img.png,"[-0.5, 0]",right,stim/silver_coin.png,silver,,,,,training,,,silver,deval,,,,,0.0,0.0,0.0,0.0,0.0,1.0,1.0,1.0,,,,,,,,,0.0,training_resp,,85.78006373427343,24.23852019465994,1.0,,right,silver,0.0,5.0,40.0,1.0,5.0,30.0,15.0,5.0,15.0,30.0,30.0,60.0,RR,5.0,1.0,right,2020_Feb_21_1419,habits_v_MRI,59.85030829226093,
5.0,1.0,resp2,stim/right_resp_img.png,"[-0.5, 0]",right,stim/silver_coin.png,silver,,,,,training,,,silver,deval,,,,,0.0,0.0,0.0,0.0,0.0,1.0,1.0,1.0,,,,,,,,,0.0,training_resp,,86.31391746341251,24.772126423427835,1.0,,right,silver,0.0,5.0,40.0,1.0,5.0,30.0,15.0,5.0,15.0,30.0,30.0,60.0,RR,5.0,1.0,right,2020_Feb_21_1419,habits_v_MRI,59.85030829226093,
5.0,1.0,resp2,stim/right_resp_img.png,"[-0.5, 0]",right,stim/silver_coin.png,silver,,,,,training,,,silver,deval,,,,,0.0,0.0,0.0,0.0,0.0,1.0,1.0,1.0,,,,,,,,,0.0,training_resp,,86.8806743620662,25.338907368364744,1.0,13.0,right,silver,1.0,5.0,40.0,1.0,5.0,30.0,15.0,5.0,15.0,30.0,30.0,60.0,RR,5.0,1.0,right,2020_Feb_21_1419,habits_v_MRI,59.85030829226093,
5.0,1.0,resp2,stim/right_resp_img.png,"[-0.5, 0]",right,stim/silver_coin.png,silver,,,,,training,,,silver,deval,,,,,0.0,0.0,0.0,0.0,0.0,1.0,1.0,1.0,,,,,,,,,0.0,training_resp,,87.59831406560261,26.05626174272038,1.0,,right,silver,0.0,5.0,40.0,1.0,5.0,30.0,15.0,5.0,15.0,30.0,30.0,60.0,RR,5.0,1.0,right,2020_Feb_21_1419,habits_v_MRI,59.85030829226093,
5.0,1.0,resp2,stim/right_resp_img.png,"[-0.5, 0]",right,stim/silver_coin.png,silver,,,,,training,,,silver,deval,,,,,0.0,0.0,0.0,0.0,0.0,1.0,1.0,1.0,,,,,,,,,0.0,training_resp,,88.08107540640049,26.539309292449616,1.0,,right,silver,0.0,5.0,40.0,1.0,5.0,30.0,15.0,5.0,15.0,30.0,30.0,60.0,RR,5.0,1.0,right,2020_Feb_21_1419,habits_v_MRI,59.85030829226093,
5.0,1.0,resp2,stim/right_resp_img.png,"[-0.5, 0]",right,stim/silver_coin.png,silver,,,,,training,,,silver,deval,,,,,0.0,0.0,0.0,0.0,0.0,1.0,1.0,1.0,,,,,,,,,0.0,training_resp,,88.64789535314776,27.106145074474625,1.0,,right,silver,0.0,5.0,40.0,1.0,5.0,30.0,15.0,5.0,15.0,30.0,30.0,60.0,RR,5.0,1.0,right,2020_Feb_21_1419,habits_v_MRI,59.85030829226093,
5.0,1.0,resp2,stim/right_resp_img.png,"[-0.5, 0]",right,stim/silver_coin.png,silver,,,,,training,,,silver,deval,,,,,0.0,0.0,0.0,0.0,0.0,1.0,1.0,1.0,,,,,,,,,0.0,training_resp,,89.04814379184972,27.506285891635343,1.0,,right,silver,0.0,5.0,40.0,1.0,5.0,30.0,15.0,5.0,15.0,30.0,30.0,60.0,RR,5.0,1.0,right,2020_Feb_21_1419,habits_v_MRI,59.85030829226093,
5.0,1.0,resp2,stim/right_resp_img.png,"[-0.5, 0]",right,stim/silver_coin.png,silver,,,,,training,,,silver,deval,,,,,0.0,0.0,0.0,0.0,0.0,1.0,1.0,1.0,,,,,,,,,0.0,training_resp,,89.53145057172514,27.989699120051228,1.0,,right,silver,0.0,5.0,40.0,1.0,5.0,30.0,15.0,5.0,15.0,30.0,30.0,60.0,RR,5.0,1.0,right,2020_Feb_21_1419,habits_v_MRI,59.85030829226093,
5.0,1.0,resp2,stim/right_resp_img.png,"[-0.5, 0]",right,stim/silver_coin.png,silver,,,,,training,,,silver,deval,,,,,0.0,0.0,0.0,0.0,0.0,1.0,1.0,1.0,,,,,,,,,0.0,training_resp,,90.08162553736474,28.539855024660937,1.0,,right,silver,0.0,5.0,40.0,1.0,5.0,30.0,15.0,5.0,15.0,30.0,30.0,60.0,RR,5.0,1.0,right,2020_Feb_21_1419,habits_v_MRI,59.85030829226093,
5.0,1.0,resp2,stim/right_resp_img.png,"[-0.5, 0]",right,stim/silver_coin.png,silver,,,,,training,,,silver,deval,,,,,0.0,0.0,0.0,0.0,0.0,1.0,1.0,1.0,,,,,,,,,0.0,training_resp,,90.48175286513288,28.939990270067938,1.0,,right,silver,0.0,5.0,40.0,1.0,5.0,30.0,15.0,5.0,15.0,30.0,30.0,60.0,RR,5.0,1.0,right,2020_Feb_21_1419,habits_v_MRI,59.85030829226093,
5.0,1.0,resp2,stim/right_resp_img.png,"[-0.5, 0]",right,stim/silver_coin.png,silver,,,,,training,,,silver,deval,,,,,0.0,0.0,0.0,0.0,0.0,1.0,1.0,1.0,,,,,,,,,0.0,training_resp,,90.765237176558,29.223442910937592,1.0,,right,silver,0.0,5.0,40.0,1.0,5.0,30.0,15.0,5.0,15.0,30.0,30.0,60.0,RR,5.0,1.0,right,2020_Feb_21_1419,habits_v_MRI,59.85030829226093,
5.0,1.0,resp2,stim/right_resp_img.png,"[-0.5, 0]",right,stim/silver_coin.png,silver,,,,,training,,,silver,deval,,,,,0.0,0.0,0.0,0.0,0.0,1.0,1.0,1.0,,,,,,,,,0.0,training_resp,,91.24863955483306,29.70687989227008,1.0,,right,silver,0.0,5.0,40.0,1.0,5.0,30.0,15.0,5.0,15.0,30.0,30.0,60.0,RR,5.0,1.0,right,2020_Feb_21_1419,habits_v_MRI,59.85030829226093,
5.0,1.0,resp2,stim/right_resp_img.png,"[-0.5, 0]",right,stim/silver_coin.png,silver,,,,,training,,,silver,deval,,,,,0.0,0.0,0.0,0.0,0.0,1.0,1.0,1.0,,,,,,,,,0.0,training_resp,,91.59873428824358,30.056986648822203,1.0,,right,silver,0.0,5.0,40.0,1.0,5.0,30.0,15.0,5.0,15.0,30.0,30.0,60.0,RR,5.0,1.0,right,2020_Feb_21_1419,habits_v_MRI,59.85030829226093,
5.0,1.0,resp2,stim/right_resp_img.png,"[-0.5, 0]",right,stim/silver_coin.png,silver,,,,,training,,,silver,deval,,,,,0.0,0.0,0.0,0.0,0.0,1.0,1.0,1.0,,,,,,,,,0.0,training_resp,,92.09909894061276,30.55724162689876,1.0,,right,silver,0.0,5.0,40.0,1.0,5.0,30.0,15.0,5.0,15.0,30.0,30.0,60.0,RR,5.0,1.0,right,2020_Feb_21_1419,habits_v_MRI,59.85030829226093,
5.0,1.0,resp2,stim/right_resp_img.png,"[-0.5, 0]",right,stim/silver_coin.png,silver,,,,,training,,,silver,deval,,,,,0.0,0.0,0.0,0.0,0.0,1.0,1.0,1.0,,,,,,,,,0.0,training_resp,,92.46562986331992,30.92385817761533,1.0,,right,silver,0.0,5.0,40.0,1.0,5.0,30.0,15.0,5.0,15.0,30.0,30.0,60.0,RR,5.0,1.0,right,2020_Feb_21_1419,habits_v_MRI,59.85030829226093,
5.0,1.0,resp2,stim/right_resp_img.png,"[-0.5, 0]",right,stim/silver_coin.png,silver,,,,,training,,,silver,deval,,,,,0.0,0.0,0.0,0.0,0.0,1.0,1.0,1.0,,,,,,,,,0.0,training_resp,,92.98232660244685,31.440517674433067,1.0,17.0,right,silver,1.0,5.0,40.0,1.0,5.0,30.0,15.0,5.0,15.0,30.0,30.0,60.0,RR,5.0,1.0,right,2020_Feb_21_1419,habits_v_MRI,59.85030829226093,
5.0,1.0,resp2,stim/right_resp_img.png,"[-0.5, 0]",right,stim/silver_coin.png,silver,,,,,training,,,silver,deval,,,,,0.0,0.0,0.0,0.0,0.0,1.0,1.0,1.0,,,,,,,,,0.0,training_resp,,93.86628738127185,32.324405434774235,1.0,,right,silver,0.0,5.0,40.0,1.0,5.0,30.0,15.0,5.0,15.0,30.0,30.0,60.0,RR,5.0,1.0,right,2020_Feb_21_1419,habits_v_MRI,59.85030829226093,
5.0,1.0,resp2,stim/right_resp_img.png,"[-0.5, 0]",right,stim/silver_coin.png,silver,,,,,training,,,silver,deval,,,,,0.0,0.0,0.0,0.0,0.0,1.0,1.0,1.0,,,,,,,,,0.0,training_resp,,94.26607835502364,32.724494933732785,1.0,,right,silver,0.0,5.0,40.0,1.0,5.0,30.0,15.0,5.0,15.0,30.0,30.0,60.0,RR,5.0,1.0,right,2020_Feb_21_1419,habits_v_MRI,59.85030829226093,
5.0,1.0,resp2,stim/right_resp_img.png,"[-0.5, 0]",right,stim/silver_coin.png,silver,,,,,training,,,silver,deval,,,,,0.0,0.0,0.0,0.0,0.0,1.0,1.0,1.0,,,,,,,,,0.0,training_resp,,94.56641643925104,33.024636249407195,1.0,,right,silver,0.0,5.0,40.0,1.0,5.0,30.0,15.0,5.0,15.0,30.0,30.0,60.0,RR,5.0,1.0,right,2020_Feb_21_1419,habits_v_MRI,59.85030829226093,
5.0,1.0,resp2,stim/right_resp_img.png,"[-0.5, 0]",right,stim/silver_coin.png,silver,,,,,training,,,silver,deval,,,,,0.0,0.0,0.0,0.0,0.0,1.0,1.0,1.0,,,,,,,,,0.0,training_resp,,95.06690660119057,33.525009405915625,1.0,,right,silver,0.0,5.0,40.0,1.0,5.0,30.0,15.0,5.0,15.0,30.0,30.0,60.0,RR,5.0,1.0,right,2020_Feb_21_1419,habits_v_MRI,59.85030829226093,
5.0,1.0,resp2,stim/right_resp_img.png,"[-0.5, 0]",right,stim/silver_coin.png,silver,,,,,training,,,silver,deval,,,,,0.0,0.0,0.0,0.0,0.0,1.0,1.0,1.0,,,,,,,,,0.0,training_resp,,95.4329170109704,33.891407194547355,1.0,,right,silver,0.0,5.0,40.0,1.0,5.0,30.0,15.0,5.0,15.0,30.0,30.0,60.0,RR,5.0,1.0,right,2020_Feb_21_1419,habits_v_MRI,59.85030829226093,
5.0,1.0,resp2,stim/right_resp_img.png,"[-0.5, 0]",right,stim/silver_coin.png,silver,,,,,training,,,silver,deval,,,,,0.0,0.0,0.0,0.0,0.0,1.0,1.0,1.0,,,,,,,,,0.0,training_resp,,95.93344265583436,34.39166334562469,1.0,,right,silver,0.0,5.0,40.0,1.0,5.0,30.0,15.0,5.0,15.0,30.0,30.0,60.0,RR,5.0,1.0,right,2020_Feb_21_1419,habits_v_MRI,59.85030829226093,
5.0,1.0,resp2,stim/right_resp_img.png,"[-0.5, 0]",right,stim/silver_coin.png,silver,,,,,training,,,silver,deval,,,,,0.0,0.0,0.0,0.0,0.0,1.0,1.0,1.0,,,,,,,,,0.0,training_resp,,96.30021110840607,34.758407165529206,1.0,,right,silver,0.0,5.0,40.0,1.0,5.0,30.0,15.0,5.0,15.0,30.0,30.0,60.0,RR,5.0,1.0,right,2020_Feb_21_1419,habits_v_MRI,59.85030829226093,
5.0,1.0,resp2,stim/right_resp_img.png,"[-0.5, 0]",right,stim/silver_coin.png,silver,,,,,training,,,silver,deval,,,,,0.0,0.0,0.0,0.0,0.0,1.0,1.0,1.0,,,,,,,,,0.0,training_resp,,96.65030906745233,35.10852213297039,1.0,,right,silver,0.0,5.0,40.0,1.0,5.0,30.0,15.0,5.0,15.0,30.0,30.0,60.0,RR,5.0,1.0,right,2020_Feb_21_1419,habits_v_MRI,59.85030829226093,
5.0,1.0,resp2,stim/right_resp_img.png,"[-0.5, 0]",right,stim/silver_coin.png,silver,,,,,training,,,silver,deval,,,,,0.0,0.0,0.0,0.0,0.0,1.0,1.0,1.0,,,,,,,,,0.0,training_resp,,96.90035268792415,35.35860211600084,1.0,,right,silver,0.0,5.0,40.0,1.0,5.0,30.0,15.0,5.0,15.0,30.0,30.0,60.0,RR,5.0,1.0,right,2020_Feb_21_1419,habits_v_MRI,59.85030829226093,
5.0,1.0,resp2,stim/right_resp_img.png,"[-0.5, 0]",right,stim/silver_coin.png,silver,,,,,training,,,silver,deval,,,,,0.0,0.0,0.0,0.0,0.0,1.0,1.0,1.0,,,,,,,,,0.0,training_resp,,97.30091490072664,35.75902239733841,1.0,,right,silver,0.0,5.0,40.0,1.0,5.0,30.0,15.0,5.0,15.0,30.0,30.0,60.0,RR,5.0,1.0,right,2020_Feb_21_1419,habits_v_MRI,59.85030829226093,
5.0,1.0,resp2,stim/right_resp_img.png,"[-0.5, 0]",right,stim/silver_coin.png,silver,,,,,training,,,silver,deval,,,,,0.0,0.0,0.0,0.0,0.0,1.0,1.0,1.0,,,,,,,,,0.0,training_resp,,97.66721709095872,36.12546182703227,1.0,,right,silver,0.0,5.0,40.0,1.0,5.0,30.0,15.0,5.0,15.0,30.0,30.0,60.0,RR,5.0,1.0,right,2020_Feb_21_1419,habits_v_MRI,59.85030829226093,
5.0,1.0,resp2,stim/right_resp_img.png,"[-0.5, 0]",right,stim/silver_coin.png,silver,,,,,training,,,silver,deval,,,,,0.0,0.0,0.0,0.0,0.0,1.0,1.0,1.0,,,,,,,,,0.0,training_resp,,98.15096227475442,36.60907358350232,1.0,,right,silver,0.0,5.0,40.0,1.0,5.0,30.0,15.0,5.0,15.0,30.0,30.0,60.0,RR,5.0,1.0,right,2020_Feb_21_1419,habits_v_MRI,59.85030829226093,
5.0,1.0,resp2,stim/right_resp_img.png,"[-0.5, 0]",right,stim/silver_coin.png,silver,,,,,training,,,silver,deval,,,,,0.0,0.0,0.0,0.0,0.0,1.0,1.0,1.0,,,,,,,,,0.0,training_resp,,98.51742897636724,36.9756722463062,1.0,,right,silver,0.0,5.0,40.0,1.0,5.0,30.0,15.0,5.0,15.0,30.0,30.0,60.0,RR,5.0,1.0,right,2020_Feb_21_1419,habits_v_MRI,59.85030829226093,
5.0,1.0,resp2,stim/right_resp_img.png,"[-0.5, 0]",right,stim/silver_coin.png,silver,,,,,training,,,silver,deval,,,,,0.0,0.0,0.0,0.0,0.0,1.0,1.0,1.0,,,,,,,,,0.0,ITI_start,28.333333333333336,98.71894259902184,37.17577271268237,,,,,,5.0,40.0,1.0,5.0,30.0,15.0,5.0,15.0,30.0,30.0,60.0,RR,5.0,1.0,right,2020_Feb_21_1419,habits_v_MRI,59.85030829226093,
5.0,0.0,resp1,stim/left_resp_img.png,"[0.5, 0]",left,stim/gold_coin.png,silver,,,,,training,,,gold,val,,,,,0.0,0.0,0.0,0.0,1.0,0.0,2.0,0.0,,,,,,,,,0.0,training_period_start,52.5,127.080686267931,0.0,2.0,5.0,,,,5.0,40.0,1.0,5.0,30.0,15.0,5.0,15.0,30.0,30.0,60.0,RR,5.0,1.0,right,2020_Feb_21_1419,habits_v_MRI,59.85030829226093,
5.0,0.0,resp1,stim/left_resp_img.png,"[0.5, 0]",left,stim/gold_coin.png,silver,,,,,training,,,gold,val,,,,,0.0,0.0,0.0,0.0,1.0,0.0,2.0,0.0,,,,,,,,,0.0,training_resp,,128.41023525141645,1.3489959376165643,2.0,,left,gold,0.0,5.0,40.0,1.0,5.0,30.0,15.0,5.0,15.0,30.0,30.0,60.0,RR,5.0,1.0,right,2020_Feb_21_1419,habits_v_MRI,59.85030829226093,
5.0,0.0,resp1,stim/left_resp_img.png,"[0.5, 0]",left,stim/gold_coin.png,silver,,,,,training,,,gold,val,,,,,0.0,0.0,0.0,0.0,1.0,0.0,2.0,0.0,,,,,,,,,0.0,training_resp,,128.70988303271588,1.648834915831685,2.0,,left,gold,0.0,5.0,40.0,1.0,5.0,30.0,15.0,5.0,15.0,30.0,30.0,60.0,RR,5.0,1.0,right,2020_Feb_21_1419,habits_v_MRI,59.85030829226093,
5.0,0.0,resp1,stim/left_resp_img.png,"[0.5, 0]",left,stim/gold_coin.png,silver,,,,,training,,,gold,val,,,,,0.0,0.0,0.0,0.0,1.0,0.0,2.0,0.0,,,,,,,,,0.0,training_resp,,128.99374768522102,1.932564088376239,2.0,,left,gold,0.0,5.0,40.0,1.0,5.0,30.0,15.0,5.0,15.0,30.0,30.0,60.0,RR,5.0,1.0,right,2020_Feb_21_1419,habits_v_MRI,59.85030829226093,
5.0,0.0,resp1,stim/left_resp_img.png,"[0.5, 0]",left,stim/gold_coin.png,silver,,,,,training,,,gold,val,,,,,0.0,0.0,0.0,0.0,1.0,0.0,2.0,0.0,,,,,,,,,0.0,training_resp,,129.27619947469793,2.215273934998549,2.0,,left,gold,0.0,5.0,40.0,1.0,5.0,30.0,15.0,5.0,15.0,30.0,30.0,60.0,RR,5.0,1.0,right,2020_Feb_21_1419,habits_v_MRI,59.85030829226093,
5.0,0.0,resp1,stim/left_resp_img.png,"[0.5, 0]",left,stim/gold_coin.png,silver,,,,,training,,,gold,val,,,,,0.0,0.0,0.0,0.0,1.0,0.0,2.0,0.0,,,,,,,,,0.0,training_resp,,129.5769583680667,2.515768906334415,2.0,12.0,left,gold,1.0,5.0,40.0,1.0,5.0,30.0,15.0,5.0,15.0,30.0,30.0,60.0,RR,5.0,1.0,right,2020_Feb_21_1419,habits_v_MRI,59.85030829226093,
5.0,0.0,resp1,stim/left_resp_img.png,"[0.5, 0]",left,stim/gold_coin.png,silver,,,,,training,,,gold,val,,,,,0.0,0.0,0.0,0.0,1.0,0.0,2.0,0.0,,,,,,,,,0.0,training_resp,,130.59381917875726,3.532729714177549,2.0,,left,gold,0.0,5.0,40.0,1.0,5.0,30.0,15.0,5.0,15.0,30.0,30.0,60.0,RR,5.0,1.0,right,2020_Feb_21_1419,habits_v_MRI,59.85030829226093,
5.0,0.0,resp1,stim/left_resp_img.png,"[0.5, 0]",left,stim/gold_coin.png,silver,,,,,training,,,gold,val,,,,,0.0,0.0,0.0,0.0,1.0,0.0,2.0,0.0,,,,,,,,,0.0,training_resp,,130.8604385741055,3.799372275942005,2.0,,left,gold,0.0,5.0,40.0,1.0,5.0,30.0,15.0,5.0,15.0,30.0,30.0,60.0,RR,5.0,1.0,right,2020_Feb_21_1419,habits_v_MRI,59.85030829226093,
5.0,0.0,resp1,stim/left_resp_img.png,"[0.5, 0]",left,stim/gold_coin.png,silver,,,,,training,,,gold,val,,,,,0.0,0.0,0.0,0.0,1.0,0.0,2.0,0.0,,,,,,,,,0.0,training_resp,,131.12726646789815,4.066208087373525,2.0,,left,gold,0.0,5.0,40.0,1.0,5.0,30.0,15.0,5.0,15.0,30.0,30.0,60.0,RR,5.0,1.0,right,2020_Feb_21_1419,habits_v_MRI,59.85030829226093,
5.0,0.0,resp1,stim/left_resp_img.png,"[0.5, 0]",left,stim/gold_coin.png,silver,,,,,training,,,gold,val,,,,,0.0,0.0,0.0,0.0,1.0,0.0,2.0,0.0,,,,,,,,,0.0,training_resp,,131.41064726316836,4.349583311006427,2.0,,left,gold,0.0,5.0,40.0,1.0,5.0,30.0,15.0,5.0,15.0,30.0,30.0,60.0,RR,5.0,1.0,right,2020_Feb_21_1419,habits_v_MRI,59.85030829226093,
5.0,0.0,resp1,stim/left_resp_img.png,"[0.5, 0]",left,stim/gold_coin.png,silver,,,,,training,,,gold,val,,,,,0.0,0.0,0.0,0.0,1.0,0.0,2.0,0.0,,,,,,,,,0.0,training_resp,,131.6606773942476,4.599620186723769,2.0,,left,gold,0.0,5.0,40.0,1.0,5.0,30.0,15.0,5.0,15.0,30.0,30.0,60.0,RR,5.0,1.0,right,2020_Feb_21_1419,habits_v_MRI,59.85030829226093,
5.0,0.0,resp1,stim/left_resp_img.png,"[0.5, 0]",left,stim/gold_coin.png,silver,,,,,training,,,gold,val,,,,,0.0,0.0,0.0,0.0,1.0,0.0,2.0,0.0,,,,,,,,,0.0,training_resp,,131.96145153651014,4.900245946133509,2.0,,left,gold,0.0,5.0,40.0,1.0,5.0,30.0,15.0,5.0,15.0,30.0,30.0,60.0,RR,5.0,1.0,right,2020_Feb_21_1419,habits_v_MRI,59.85030829226093,
5.0,0.0,resp1,stim/left_resp_img.png,"[0.5, 0]",left,stim/gold_coin.png,silver,,,,,training,,,gold,val,,,,,0.0,0.0,0.0,0.0,1.0,0.0,2.0,0.0,,,,,,,,,0.0,training_resp,,132.42807345371693,5.366836485918611,2.0,,left,gold,0.0,5.0,40.0,1.0,5.0,30.0,15.0,5.0,15.0,30.0,30.0,60.0,RR,5.0,1.0,right,2020_Feb_21_1419,habits_v_MRI,59.85030829226093,
5.0,0.0,resp1,stim/left_resp_img.png,"[0.5, 0]",left,stim/gold_coin.png,silver,,,,,training,,,gold,val,,,,,0.0,0.0,0.0,0.0,1.0,0.0,2.0,0.0,,,,,,,,,0.0,training_resp,,132.91170163196512,5.850428888108581,2.0,,left,gold,0.0,5.0,40.0,1.0,5.0,30.0,15.0,5.0,15.0,30.0,30.0,60.0,RR,5.0,1.0,right,2020_Feb_21_1419,habits_v_MRI,59.85030829226093,
5.0,0.0,resp1,stim/left_resp_img.png,"[0.5, 0]",left,stim/gold_coin.png,silver,,,,,training,,,gold,val,,,,,0.0,0.0,0.0,0.0,1.0,0.0,2.0,0.0,,,,,,,,,0.0,training_resp,,133.46142411790788,6.400321750435978,2.0,,left,gold,0.0,5.0,40.0,1.0,5.0,30.0,15.0,5.0,15.0,30.0,30.0,60.0,RR,5.0,1.0,right,2020_Feb_21_1419,habits_v_MRI,59.85030829226093,
5.0,0.0,resp1,stim/left_resp_img.png,"[0.5, 0]",left,stim/gold_coin.png,silver,,,,,training,,,gold,val,,,,,0.0,0.0,0.0,0.0,1.0,0.0,2.0,0.0,,,,,,,,,0.0,training_resp,,133.82836148072963,6.767223043832928,2.0,,left,gold,0.0,5.0,40.0,1.0,5.0,30.0,15.0,5.0,15.0,30.0,30.0,60.0,RR,5.0,1.0,right,2020_Feb_21_1419,habits_v_MRI,59.85030829226093,
5.0,0.0,resp1,stim/left_resp_img.png,"[0.5, 0]",left,stim/gold_coin.png,silver,,,,,training,,,gold,val,,,,,0.0,0.0,0.0,0.0,1.0,0.0,2.0,0.0,,,,,,,,,0.0,training_resp,,134.26176264195237,7.200555585324764,2.0,,left,gold,0.0,5.0,40.0,1.0,5.0,30.0,15.0,5.0,15.0,30.0,30.0,60.0,RR,5.0,1.0,right,2020_Feb_21_1419,habits_v_MRI,59.85030829226093,
5.0,0.0,resp1,stim/left_resp_img.png,"[0.5, 0]",left,stim/gold_coin.png,silver,,,,,training,,,gold,val,,,,,0.0,0.0,0.0,0.0,1.0,0.0,2.0,0.0,,,,,,,,,0.0,training_resp,,134.82868581160437,7.767491364618763,2.0,14.0,left,gold,1.0,5.0,40.0,1.0,5.0,30.0,15.0,5.0,15.0,30.0,30.0,60.0,RR,5.0,1.0,right,2020_Feb_21_1419,habits_v_MRI,59.85030829226093,
5.0,0.0,resp1,stim/left_resp_img.png,"[0.5, 0]",left,stim/gold_coin.png,silver,,,,,training,,,gold,val,,,,,0.0,0.0,0.0,0.0,1.0,0.0,2.0,0.0,,,,,,,,,0.0,training_resp,,135.62860528600868,8.56752227281686,2.0,,left,gold,0.0,5.0,40.0,1.0,5.0,30.0,15.0,5.0,15.0,30.0,30.0,60.0,RR,5.0,1.0,right,2020_Feb_21_1419,habits_v_MRI,59.85030829226093,
5.0,0.0,resp1,stim/left_resp_img.png,"[0.5, 0]",left,stim/gold_coin.png,silver,,,,,training,,,gold,val,,,,,0.0,0.0,0.0,0.0,1.0,0.0,2.0,0.0,,,,,,,,,0.0,training_resp,,136.12877258332446,9.067678426741622,2.0,,left,gold,0.0,5.0,40.0,1.0,5.0,30.0,15.0,5.0,15.0,30.0,30.0,60.0,RR,5.0,1.0,right,2020_Feb_21_1419,habits_v_MRI,59.85030829226093,
5.0,0.0,resp1,stim/left_resp_img.png,"[0.5, 0]",left,stim/gold_coin.png,silver,,,,,training,,,gold,val,,,,,0.0,0.0,0.0,0.0,1.0,0.0,2.0,0.0,,,,,,,,,0.0,training_resp,,136.51222120667808,9.451156668015756,2.0,,left,gold,0.0,5.0,40.0,1.0,5.0,30.0,15.0,5.0,15.0,30.0,30.0,60.0,RR,5.0,1.0,right,2020_Feb_21_1419,habits_v_MRI,59.85030829226093,
5.0,0.0,resp1,stim/left_resp_img.png,"[0.5, 0]",left,stim/gold_coin.png,silver,,,,,training,,,gold,val,,,,,0.0,0.0,0.0,0.0,1.0,0.0,2.0,0.0,,,,,,,,,0.0,training_resp,,136.9956570151262,9.93457634781953,2.0,,left,gold,0.0,5.0,40.0,1.0,5.0,30.0,15.0,5.0,15.0,30.0,30.0,60.0,RR,5.0,1.0,right,2020_Feb_21_1419,habits_v_MRI,59.85030829226093,
5.0,0.0,resp1,stim/left_resp_img.png,"[0.5, 0]",left,stim/gold_coin.png,silver,,,,,training,,,gold,val,,,,,0.0,0.0,0.0,0.0,1.0,0.0,2.0,0.0,,,,,,,,,0.0,training_resp,,137.56244675745256,10.501369315898046,2.0,,left,gold,0.0,5.0,40.0,1.0,5.0,30.0,15.0,5.0,15.0,30.0,30.0,60.0,RR,5.0,1.0,right,2020_Feb_21_1419,habits_v_MRI,59.85030829226093,
5.0,0.0,resp1,stim/left_resp_img.png,"[0.5, 0]",left,stim/gold_coin.png,silver,,,,,training,,,gold,val,,,,,0.0,0.0,0.0,0.0,1.0,0.0,2.0,0.0,,,,,,,,,0.0,training_resp,,138.16272293729708,11.101631126599386,2.0,,left,gold,0.0,5.0,40.0,1.0,5.0,30.0,15.0,5.0,15.0,30.0,30.0,60.0,RR,5.0,1.0,right,2020_Feb_21_1419,habits_v_MRI,59.85030829226093,
5.0,0.0,resp1,stim/left_resp_img.png,"[0.5, 0]",left,stim/gold_coin.png,silver,,,,,training,,,gold,val,,,,,0.0,0.0,0.0,0.0,1.0,0.0,2.0,0.0,,,,,,,,,0.0,training_resp,,138.4628129346529,11.401747516239991,2.0,,left,gold,0.0,5.0,40.0,1.0,5.0,30.0,15.0,5.0,15.0,30.0,30.0,60.0,RR,5.0,1.0,right,2020_Feb_21_1419,habits_v_MRI,59.85030829226093,
5.0,0.0,resp1,stim/left_resp_img.png,"[0.5, 0]",left,stim/gold_coin.png,silver,,,,,training,,,gold,val,,,,,0.0,0.0,0.0,0.0,1.0,0.0,2.0,0.0,,,,,,,,,0.0,training_resp,,138.99627693882212,11.935202136519363,2.0,,left,gold,0.0,5.0,40.0,1.0,5.0,30.0,15.0,5.0,15.0,30.0,30.0,60.0,RR,5.0,1.0,right,2020_Feb_21_1419,habits_v_MRI,59.85030829226093,
5.0,0.0,resp1,stim/left_resp_img.png,"[0.5, 0]",left,stim/gold_coin.png,silver,,,,,training,,,gold,val,,,,,0.0,0.0,0.0,0.0,1.0,0.0,2.0,0.0,,,,,,,,,0.0,training_resp,,139.37971735117026,12.318649880005978,2.0,,left,gold,0.0,5.0,40.0,1.0,5.0,30.0,15.0,5.0,15.0,30.0,30.0,60.0,RR,5.0,1.0,right,2020_Feb_21_1419,habits_v_MRI,59.85030829226093,
5.0,0.0,resp1,stim/left_resp_img.png,"[0.5, 0]",left,stim/gold_coin.png,silver,,,,,training,,,gold,val,,,,,0.0,0.0,0.0,0.0,1.0,0.0,2.0,0.0,,,,,,,,,0.0,training_resp,,140.01374359743204,12.95251630677376,2.0,,left,gold,0.0,5.0,40.0,1.0,5.0,30.0,15.0,5.0,15.0,30.0,30.0,60.0,RR,5.0,1.0,right,2020_Feb_21_1419,habits_v_MRI,59.85030829226093,
5.0,0.0,resp1,stim/left_resp_img.png,"[0.5, 0]",left,stim/gold_coin.png,silver,,,,,training,,,gold,val,,,,,0.0,0.0,0.0,0.0,1.0,0.0,2.0,0.0,,,,,,,,,0.0,training_resp,,140.3471487761708,13.285873393062502,2.0,,left,gold,0.0,5.0,40.0,1.0,5.0,30.0,15.0,5.0,15.0,30.0,30.0,60.0,RR,5.0,1.0,right,2020_Feb_21_1419,habits_v_MRI,59.85030829226093,
5.0,0.0,resp1,stim/left_resp_img.png,"[0.5, 0]",left,stim/gold_coin.png,silver,,,,,training,,,gold,val,,,,,0.0,0.0,0.0,0.0,1.0,0.0,2.0,0.0,,,,,,,,,0.0,training_resp,,141.01360019971617,13.952510441769846,2.0,,left,gold,0.0,5.0,40.0,1.0,5.0,30.0,15.0,5.0,15.0,30.0,30.0,60.0,RR,5.0,1.0,right,2020_Feb_21_1419,habits_v_MRI,59.85030829226093,
5.0,0.0,resp1,stim/left_resp_img.png,"[0.5, 0]",left,stim/gold_coin.png,silver,,,,,training,,,gold,val,,,,,0.0,0.0,0.0,0.0,1.0,0.0,2.0,0.0,,,,,,,,,0.0,training_resp,,141.39701187389437,14.335939124342984,2.0,,left,gold,0.0,5.0,40.0,1.0,5.0,30.0,15.0,5.0,15.0,30.0,30.0,60.0,RR,5.0,1.0,right,2020_Feb_21_1419,habits_v_MRI,59.85030829226093,
5.0,0.0,resp1,stim/left_resp_img.png,"[0.5, 0]",left,stim/gold_coin.png,silver,,,,,training,,,gold,val,,,,,0.0,0.0,0.0,0.0,1.0,0.0,2.0,0.0,,,,,,,,,0.0,training_resp,,142.0805088536581,15.019418215961196,2.0,9.0,left,gold,1.0,5.0,40.0,1.0,5.0,30.0,15.0,5.0,15.0,30.0,30.0,60.0,RR,5.0,1.0,right,2020_Feb_21_1419,habits_v_MRI,59.85030829226093,
5.0,0.0,resp1,stim/left_resp_img.png,"[0.5, 0]",left,stim/gold_coin.png,silver,,,,,training,,,gold,val,,,,,0.0,0.0,0.0,0.0,1.0,0.0,2.0,0.0,,,,,,,,,0.0,training_resp,,142.6973253254546,15.636240552645177,2.0,,left,gold,0.0,5.0,40.0,1.0,5.0,30.0,15.0,5.0,15.0,30.0,30.0,60.0,RR,5.0,1.0,right,2020_Feb_21_1419,habits_v_MRI,59.85030829226093,
5.0,0.0,resp1,stim/left_resp_img.png,"[0.5, 0]",left,stim/gold_coin.png,silver,,,,,training,,,gold,val,,,,,0.0,0.0,0.0,0.0,1.0,0.0,2.0,0.0,,,,,,,,,0.0,training_resp,,143.03080616192892,15.96973282576073,2.0,,left,gold,0.0,5.0,40.0,1.0,5.0,30.0,15.0,5.0,15.0,30.0,30.0,60.0,RR,5.0,1.0,right,2020_Feb_21_1419,habits_v_MRI,59.85030829226093,
5.0,0.0,resp1,stim/left_resp_img.png,"[0.5, 0]",left,stim/gold_coin.png,silver,,,,,training,,,gold,val,,,,,0.0,0.0,0.0,0.0,1.0,0.0,2.0,0.0,,,,,,,,,0.0,training_resp,,143.31421686836984,16.253145585069433,2.0,,left,gold,0.0,5.0,40.0,1.0,5.0,30.0,15.0,5.0,15.0,30.0,30.0,60.0,RR,5.0,1.0,right,2020_Feb_21_1419,habits_v_MRI,59.85030829226093,
5.0,0.0,resp1,stim/left_resp_img.png,"[0.5, 0]",left,stim/gold_coin.png,silver,,,,,training,,,gold,val,,,,,0.0,0.0,0.0,0.0,1.0,0.0,2.0,0.0,,,,,,,,,0.0,training_resp,,143.5313801924931,16.470169323612936,2.0,,left,gold,0.0,5.0,40.0,1.0,5.0,30.0,15.0,5.0,15.0,30.0,30.0,60.0,RR,5.0,1.0,right,2020_Feb_21_1419,habits_v_MRI,59.85030829226093,
5.0,0.0,resp1,stim/left_resp_img.png,"[0.5, 0]",left,stim/gold_coin.png,silver,,,,,training,,,gold,val,,,,,0.0,0.0,0.0,0.0,1.0,0.0,2.0,0.0,,,,,,,,,0.0,training_resp,,143.91432882996742,16.853238778887317,2.0,,left,gold,0.0,5.0,40.0,1.0,5.0,30.0,15.0,5.0,15.0,30.0,30.0,60.0,RR,5.0,1.0,right,2020_Feb_21_1419,habits_v_MRI,59.85030829226093,
5.0,0.0,resp1,stim/left_resp_img.png,"[0.5, 0]",left,stim/gold_coin.png,silver,,,,,training,,,gold,val,,,,,0.0,0.0,0.0,0.0,1.0,0.0,2.0,0.0,,,,,,,,,0.0,training_resp,,144.1812408856349,17.120165496715344,2.0,,left,gold,0.0,5.0,40.0,1.0,5.0,30.0,15.0,5.0,15.0,30.0,30.0,60.0,RR,5.0,1.0,right,2020_Feb_21_1419,habits_v_MRI,59.85030829226093,
5.0,0.0,resp1,stim/left_resp_img.png,"[0.5, 0]",left,stim/gold_coin.png,silver,,,,,training,,,gold,val,,,,,0.0,0.0,0.0,0.0,1.0,0.0,2.0,0.0,,,,,,,,,0.0,training_resp,,144.39818310155533,17.337050822912715,2.0,,left,gold,0.0,5.0,40.0,1.0,5.0,30.0,15.0,5.0,15.0,30.0,30.0,60.0,RR,5.0,1.0,right,2020_Feb_21_1419,habits_v_MRI,59.85030829226093,
5.0,0.0,resp1,stim/left_resp_img.png,"[0.5, 0]",left,stim/gold_coin.png,silver,,,,,training,,,gold,val,,,,,0.0,0.0,0.0,0.0,1.0,0.0,2.0,0.0,,,,,,,,,0.0,training_resp,,144.6651391441701,17.60387783695478,2.0,,left,gold,0.0,5.0,40.0,1.0,5.0,30.0,15.0,5.0,15.0,30.0,30.0,60.0,RR,5.0,1.0,right,2020_Feb_21_1419,habits_v_MRI,59.85030829226093,
5.0,0.0,resp1,stim/left_resp_img.png,"[0.5, 0]",left,stim/gold_coin.png,silver,,,,,training,,,gold,val,,,,,0.0,0.0,0.0,0.0,1.0,0.0,2.0,0.0,,,,,,,,,0.0,training_resp,,145.04813411470968,17.987084824824706,2.0,9.0,left,gold,1.0,5.0,40.0,1.0,5.0,30.0,15.0,5.0,15.0,30.0,30.0,60.0,RR,5.0,1.0,right,2020_Feb_21_1419,habits_v_MRI,59.85030829226093,
5.0,0.0,resp1,stim/left_resp_img.png,"[0.5, 0]",left,stim/gold_coin.png,silver,,,,,training,,,gold,val,,,,,0.0,0.0,0.0,0.0,1.0,0.0,2.0,0.0,,,,,,,,,0.0,training_resp,,145.6150874887826,18.55400711472612,2.0,,left,gold,0.0,5.0,40.0,1.0,5.0,30.0,15.0,5.0,15.0,30.0,30.0,60.0,RR,5.0,1.0,right,2020_Feb_21_1419,habits_v_MRI,59.85030829226093,
5.0,0.0,resp1,stim/left_resp_img.png,"[0.5, 0]",left,stim/gold_coin.png,silver,,,,,training,,,gold,val,,,,,0.0,0.0,0.0,0.0,1.0,0.0,2.0,0.0,,,,,,,,,0.0,training_resp,,145.8650290593505,18.803954843548127,2.0,,left,gold,0.0,5.0,40.0,1.0,5.0,30.0,15.0,5.0,15.0,30.0,30.0,60.0,RR,5.0,1.0,right,2020_Feb_21_1419,habits_v_MRI,59.85030829226093,
5.0,0.0,resp1,stim/left_resp_img.png,"[0.5, 0]",left,stim/gold_coin.png,silver,,,,,training,,,gold,val,,,,,0.0,0.0,0.0,0.0,1.0,0.0,2.0,0.0,,,,,,,,,0.0,training_resp,,146.24870436242782,19.18763219937682,2.0,,left,gold,0.0,5.0,40.0,1.0,5.0,30.0,15.0,5.0,15.0,30.0,30.0,60.0,RR,5.0,1.0,right,2020_Feb_21_1419,habits_v_MRI,59.85030829226093,
5.0,0.0,resp1,stim/left_resp_img.png,"[0.5, 0]",left,stim/gold_coin.png,silver,,,,,training,,,gold,val,,,,,0.0,0.0,0.0,0.0,1.0,0.0,2.0,0.0,,,,,,,,,0.0,training_resp,,146.432560422807,19.371379465213977,2.0,,left,gold,0.0,5.0,40.0,1.0,5.0,30.0,15.0,5.0,15.0,30.0,30.0,60.0,RR,5.0,1.0,right,2020_Feb_21_1419,habits_v_MRI,59.85030829226093,
5.0,0.0,resp1,stim/left_resp_img.png,"[0.5, 0]",left,stim/gold_coin.png,silver,,,,,training,,,gold,val,,,,,0.0,0.0,0.0,0.0,1.0,0.0,2.0,0.0,,,,,,,,,0.0,training_resp,,146.73262666724622,19.67143573926296,2.0,,left,gold,0.0,5.0,40.0,1.0,5.0,30.0,15.0,5.0,15.0,30.0,30.0,60.0,RR,5.0,1.0,right,2020_Feb_21_1419,habits_v_MRI,59.85030829226093,
5.0,0.0,resp1,stim/left_resp_img.png,"[0.5, 0]",left,stim/gold_coin.png,silver,,,,,training,,,gold,val,,,,,0.0,0.0,0.0,0.0,1.0,0.0,2.0,0.0,,,,,,,,,0.0,training_resp,,147.0151972217718,19.95430687163025,2.0,,left,gold,0.0,5.0,40.0,1.0,5.0,30.0,15.0,5.0,15.0,30.0,30.0,60.0,RR,5.0,1.0,right,2020_Feb_21_1419,habits_v_MRI,59.85030829226093,
5.0,0.0,resp1,stim/left_resp_img.png,"[0.5, 0]",left,stim/gold_coin.png,silver,,,,,training,,,gold,val,,,,,0.0,0.0,0.0,0.0,1.0,0.0,2.0,0.0,,,,,,,,,0.0,training_resp,,147.39961062697694,20.338361636037007,2.0,,left,gold,0.0,5.0,40.0,1.0,5.0,30.0,15.0,5.0,15.0,30.0,30.0,60.0,RR,5.0,1.0,right,2020_Feb_21_1419,habits_v_MRI,59.85030829226093,
5.0,0.0,resp1,stim/left_resp_img.png,"[0.5, 0]",left,stim/gold_coin.png,silver,,,,,training,,,gold,val,,,,,0.0,0.0,0.0,0.0,1.0,0.0,2.0,0.0,,,,,,,,,0.0,training_resp,,147.56530092842877,20.50438975787256,2.0,,left,gold,0.0,5.0,40.0,1.0,5.0,30.0,15.0,5.0,15.0,30.0,30.0,60.0,RR,5.0,1.0,right,2020_Feb_21_1419,habits_v_MRI,59.85030829226093,
5.0,0.0,resp1,stim/left_resp_img.png,"[0.5, 0]",left,stim/gold_coin.png,silver,,,,,training,,,gold,val,,,,,0.0,0.0,0.0,0.0,1.0,0.0,2.0,0.0,,,,,,,,,0.0,training_resp,,147.81550935364794,20.754717241157778,2.0,10.0,left,gold,1.0,5.0,40.0,1.0,5.0,30.0,15.0,5.0,15.0,30.0,30.0,60.0,RR,5.0,1.0,right,2020_Feb_21_1419,habits_v_MRI,59.85030829226093,
5.0,0.0,resp1,stim/left_resp_img.png,"[0.5, 0]",left,stim/gold_coin.png,silver,,,,,training,,,gold,val,,,,,0.0,0.0,0.0,0.0,1.0,0.0,2.0,0.0,,,,,,,,,0.0,training_resp,,148.2992991108913,21.23823574522976,2.0,,left,gold,0.0,5.0,40.0,1.0,5.0,30.0,15.0,5.0,15.0,30.0,30.0,60.0,RR,5.0,1.0,right,2020_Feb_21_1419,habits_v_MRI,59.85030829226093,
5.0,0.0,resp1,stim/left_resp_img.png,"[0.5, 0]",left,stim/gold_coin.png,silver,,,,,training,,,gold,val,,,,,0.0,0.0,0.0,0.0,1.0,0.0,2.0,0.0,,,,,,,,,0.0,training_resp,,148.51610086171422,21.45503427030053,2.0,,left,gold,0.0,5.0,40.0,1.0,5.0,30.0,15.0,5.0,15.0,30.0,30.0,60.0,RR,5.0,1.0,right,2020_Feb_21_1419,habits_v_MRI,59.85030829226093,
5.0,0.0,resp1,stim/left_resp_img.png,"[0.5, 0]",left,stim/gold_coin.png,silver,,,,,training,,,gold,val,,,,,0.0,0.0,0.0,0.0,1.0,0.0,2.0,0.0,,,,,,,,,0.0,training_resp,,148.767034486169,21.705420403042808,2.0,,left,gold,0.0,5.0,40.0,1.0,5.0,30.0,15.0,5.0,15.0,30.0,30.0,60.0,RR,5.0,1.0,right,2020_Feb_21_1419,habits_v_MRI,59.85030829226093,
5.0,0.0,resp1,stim/left_resp_img.png,"[0.5, 0]",left,stim/gold_coin.png,silver,,,,,training,,,gold,val,,,,,0.0,0.0,0.0,0.0,1.0,0.0,2.0,0.0,,,,,,,,,0.0,training_resp,,149.0327753140591,21.97186209075153,2.0,,left,gold,0.0,5.0,40.0,1.0,5.0,30.0,15.0,5.0,15.0,30.0,30.0,60.0,RR,5.0,1.0,right,2020_Feb_21_1419,habits_v_MRI,59.85030829226093,
5.0,0.0,resp1,stim/left_resp_img.png,"[0.5, 0]",left,stim/gold_coin.png,silver,,,,,training,,,gold,val,,,,,0.0,0.0,0.0,0.0,1.0,0.0,2.0,0.0,,,,,,,,,0.0,training_resp,,149.26648391527124,22.20533902698662,2.0,,left,gold,0.0,5.0,40.0,1.0,5.0,30.0,15.0,5.0,15.0,30.0,30.0,60.0,RR,5.0,1.0,right,2020_Feb_21_1419,habits_v_MRI,59.85030829226093,
5.0,0.0,resp1,stim/left_resp_img.png,"[0.5, 0]",left,stim/gold_coin.png,silver,,,,,training,,,gold,val,,,,,0.0,0.0,0.0,0.0,1.0,0.0,2.0,0.0,,,,,,,,,0.0,training_resp,,149.53313703404274,22.471940241055563,2.0,,left,gold,0.0,5.0,40.0,1.0,5.0,30.0,15.0,5.0,15.0,30.0,30.0,60.0,RR,5.0,1.0,right,2020_Feb_21_1419,habits_v_MRI,59.85030829226093,
5.0,0.0,resp1,stim/left_resp_img.png,"[0.5, 0]",left,stim/gold_coin.png,silver,,,,,training,,,gold,val,,,,,0.0,0.0,0.0,0.0,1.0,0.0,2.0,0.0,,,,,,,,,0.0,training_resp,,149.78343607240822,22.72225863370113,2.0,,left,gold,0.0,5.0,40.0,1.0,5.0,30.0,15.0,5.0,15.0,30.0,30.0,60.0,RR,5.0,1.0,right,2020_Feb_21_1419,habits_v_MRI,59.85030829226093,
5.0,0.0,resp1,stim/left_resp_img.png,"[0.5, 0]",left,stim/gold_coin.png,silver,,,,,training,,,gold,val,,,,,0.0,0.0,0.0,0.0,1.0,0.0,2.0,0.0,,,,,,,,,0.0,training_resp,,150.016589264269,22.955452000373043,2.0,,left,gold,0.0,5.0,40.0,1.0,5.0,30.0,15.0,5.0,15.0,30.0,30.0,60.0,RR,5.0,1.0,right,2020_Feb_21_1419,habits_v_MRI,59.85030829226093,
5.0,0.0,resp1,stim/left_resp_img.png,"[0.5, 0]",left,stim/gold_coin.png,silver,,,,,training,,,gold,val,,,,,0.0,0.0,0.0,0.0,1.0,0.0,2.0,0.0,,,,,,,,,0.0,training_resp,,150.23325406876393,23.17217369482387,2.0,,left,gold,0.0,5.0,40.0,1.0,5.0,30.0,15.0,5.0,15.0,30.0,30.0,60.0,RR,5.0,1.0,right,2020_Feb_21_1419,habits_v_MRI,59.85030829226093,
5.0,0.0,resp1,stim/left_resp_img.png,"[0.5, 0]",left,stim/gold_coin.png,silver,,,,,training,,,gold,val,,,,,0.0,0.0,0.0,0.0,1.0,0.0,2.0,0.0,,,,,,,,,0.0,training_resp,,150.48334138304926,23.422258076490834,2.0,10.0,left,gold,1.0,5.0,40.0,1.0,5.0,30.0,15.0,5.0,15.0,30.0,30.0,60.0,RR,5.0,1.0,right,2020_Feb_21_1419,habits_v_MRI,59.85030829226093,
5.0,0.0,resp1,stim/left_resp_img.png,"[0.5, 0]",left,stim/gold_coin.png,silver,,,,,training,,,gold,val,,,,,0.0,0.0,0.0,0.0,1.0,0.0,2.0,0.0,,,,,,,,,0.0,training_resp,,151.13335163204465,24.072304101660848,2.0,,left,gold,0.0,5.0,40.0,1.0,5.0,30.0,15.0,5.0,15.0,30.0,30.0,60.0,RR,5.0,1.0,right,2020_Feb_21_1419,habits_v_MRI,59.85030829226093,
5.0,0.0,resp1,stim/left_resp_img.png,"[0.5, 0]",left,stim/gold_coin.png,silver,,,,,training,,,gold,val,,,,,0.0,0.0,0.0,0.0,1.0,0.0,2.0,0.0,,,,,,,,,0.0,training_resp,,151.4003874376649,24.33937040495221,2.0,,left,gold,0.0,5.0,40.0,1.0,5.0,30.0,15.0,5.0,15.0,30.0,30.0,60.0,RR,5.0,1.0,right,2020_Feb_21_1419,habits_v_MRI,59.85030829226093,
5.0,0.0,resp1,stim/left_resp_img.png,"[0.5, 0]",left,stim/gold_coin.png,silver,,,,,training,,,gold,val,,,,,0.0,0.0,0.0,0.0,1.0,0.0,2.0,0.0,,,,,,,,,0.0,training_resp,,151.7003572039539,24.63941876136232,2.0,,left,gold,0.0,5.0,40.0,1.0,5.0,30.0,15.0,5.0,15.0,30.0,30.0,60.0,RR,5.0,1.0,right,2020_Feb_21_1419,habits_v_MRI,59.85030829226093,
5.0,0.0,resp1,stim/left_resp_img.png,"[0.5, 0]",left,stim/gold_coin.png,silver,,,,,training,,,gold,val,,,,,0.0,0.0,0.0,0.0,1.0,0.0,2.0,0.0,,,,,,,,,0.0,training_resp,,152.01698045548983,24.95600975572597,2.0,,left,gold,0.0,5.0,40.0,1.0,5.0,30.0,15.0,5.0,15.0,30.0,30.0,60.0,RR,5.0,1.0,right,2020_Feb_21_1419,habits_v_MRI,59.85030829226093,
5.0,0.0,resp1,stim/left_resp_img.png,"[0.5, 0]",left,stim/gold_coin.png,silver,,,,,training,,,gold,val,,,,,0.0,0.0,0.0,0.0,1.0,0.0,2.0,0.0,,,,,,,,,0.0,training_resp,,152.21707007172515,25.156067408039235,2.0,,left,gold,0.0,5.0,40.0,1.0,5.0,30.0,15.0,5.0,15.0,30.0,30.0,60.0,RR,5.0,1.0,right,2020_Feb_21_1419,habits_v_MRI,59.85030829226093,
5.0,0.0,resp1,stim/left_resp_img.png,"[0.5, 0]",left,stim/gold_coin.png,silver,,,,,training,,,gold,val,,,,,0.0,0.0,0.0,0.0,1.0,0.0,2.0,0.0,,,,,,,,,0.0,training_resp,,152.40033641282935,25.339392105233856,2.0,,left,gold,0.0,5.0,40.0,1.0,5.0,30.0,15.0,5.0,15.0,30.0,30.0,60.0,RR,5.0,1.0,right,2020_Feb_21_1419,habits_v_MRI,59.85030829226093,
5.0,0.0,resp1,stim/left_resp_img.png,"[0.5, 0]",left,stim/gold_coin.png,silver,,,,,training,,,gold,val,,,,,0.0,0.0,0.0,0.0,1.0,0.0,2.0,0.0,,,,,,,,,0.0,training_resp,,152.58363677049056,25.522787181660533,2.0,,left,gold,0.0,5.0,40.0,1.0,5.0,30.0,15.0,5.0,15.0,30.0,30.0,60.0,RR,5.0,1.0,right,2020_Feb_21_1419,habits_v_MRI,59.85030829226093,
5.0,0.0,resp1,stim/left_resp_img.png,"[0.5, 0]",left,stim/gold_coin.png,silver,,,,,training,,,gold,val,,,,,0.0,0.0,0.0,0.0,1.0,0.0,2.0,0.0,,,,,,,,,0.0,training_resp,,152.80042327241972,25.73942706023809,2.0,,left,gold,0.0,5.0,40.0,1.0,5.0,30.0,15.0,5.0,15.0,30.0,30.0,60.0,RR,5.0,1.0,right,2020_Feb_21_1419,habits_v_MRI,59.85030829226093,
5.0,0.0,resp1,stim/left_resp_img.png,"[0.5, 0]",left,stim/gold_coin.png,silver,,,,,training,,,gold,val,,,,,0.0,0.0,0.0,0.0,1.0,0.0,2.0,0.0,,,,,,,,,0.0,training_resp,,153.03370314696804,25.972852091887034,2.0,,left,gold,0.0,5.0,40.0,1.0,5.0,30.0,15.0,5.0,15.0,30.0,30.0,60.0,RR,5.0,1.0,right,2020_Feb_21_1419,habits_v_MRI,59.85030829226093,
5.0,0.0,resp1,stim/left_resp_img.png,"[0.5, 0]",left,stim/gold_coin.png,silver,,,,,training,,,gold,val,,,,,0.0,0.0,0.0,0.0,1.0,0.0,2.0,0.0,,,,,,,,,0.0,training_resp,,153.28413619915955,26.22306726174429,2.0,22.0,left,gold,1.0,5.0,40.0,1.0,5.0,30.0,15.0,5.0,15.0,30.0,30.0,60.0,RR,5.0,1.0,right,2020_Feb_21_1419,habits_v_MRI,59.85030829226093,
5.0,0.0,resp1,stim/left_resp_img.png,"[0.5, 0]",left,stim/gold_coin.png,silver,,,,,training,,,gold,val,,,,,0.0,0.0,0.0,0.0,1.0,0.0,2.0,0.0,,,,,,,,,0.0,training_resp,,153.767624205444,26.706457910127934,2.0,,left,gold,0.0,5.0,40.0,1.0,5.0,30.0,15.0,5.0,15.0,30.0,30.0,60.0,RR,5.0,1.0,right,2020_Feb_21_1419,habits_v_MRI,59.85030829226093,
5.0,0.0,resp1,stim/left_resp_img.png,"[0.5, 0]",left,stim/gold_coin.png,silver,,,,,training,,,gold,val,,,,,0.0,0.0,0.0,0.0,1.0,0.0,2.0,0.0,,,,,,,,,0.0,training_resp,,154.00096742121968,26.939905228558928,2.0,,left,gold,0.0,5.0,40.0,1.0,5.0,30.0,15.0,5.0,15.0,30.0,30.0,60.0,RR,5.0,1.0,right,2020_Feb_21_1419,habits_v_MRI,59.85030829226093,
5.0,0.0,resp1,stim/left_resp_img.png,"[0.5, 0]",left,stim/gold_coin.png,silver,,,,,training,,,gold,val,,,,,0.0,0.0,0.0,0.0,1.0,0.0,2.0,0.0,,,,,,,,,0.0,training_resp,,154.23439479875378,27.17332263570279,2.0,,left,gold,0.0,5.0,40.0,1.0,5.0,30.0,15.0,5.0,15.0,30.0,30.0,60.0,RR,5.0,1.0,right,2020_Feb_21_1419,habits_v_MRI,59.85030829226093,
5.0,0.0,resp1,stim/left_resp_img.png,"[0.5, 0]",left,stim/gold_coin.png,silver,,,,,training,,,gold,val,,,,,0.0,0.0,0.0,0.0,1.0,0.0,2.0,0.0,,,,,,,,,0.0,training_resp,,155.01865958655253,27.95743904064875,2.0,,left,gold,0.0,5.0,40.0,1.0,5.0,30.0,15.0,5.0,15.0,30.0,30.0,60.0,RR,5.0,1.0,right,2020_Feb_21_1419,habits_v_MRI,59.85030829226093,
5.0,0.0,resp1,stim/left_resp_img.png,"[0.5, 0]",left,stim/gold_coin.png,silver,,,,,training,,,gold,val,,,,,0.0,0.0,0.0,0.0,1.0,0.0,2.0,0.0,,,,,,,,,0.0,training_resp,,155.3181815650314,28.257151042926125,2.0,,left,gold,0.0,5.0,40.0,1.0,5.0,30.0,15.0,5.0,15.0,30.0,30.0,60.0,RR,5.0,1.0,right,2020_Feb_21_1419,habits_v_MRI,59.85030829226093,
5.0,0.0,resp1,stim/left_resp_img.png,"[0.5, 0]",left,stim/gold_coin.png,silver,,,,,training,,,gold,val,,,,,0.0,0.0,0.0,0.0,1.0,0.0,2.0,0.0,,,,,,,,,0.0,training_resp,,155.5347390412353,28.473821125924587,2.0,,left,gold,0.0,5.0,40.0,1.0,5.0,30.0,15.0,5.0,15.0,30.0,30.0,60.0,RR,5.0,1.0,right,2020_Feb_21_1419,habits_v_MRI,59.85030829226093,
5.0,0.0,resp1,stim/left_resp_img.png,"[0.5, 0]",left,stim/gold_coin.png,silver,,,,,training,,,gold,val,,,,,0.0,0.0,0.0,0.0,1.0,0.0,2.0,0.0,,,,,,,,,0.0,training_resp,,155.7515355135547,28.690455139498223,2.0,,left,gold,0.0,5.0,40.0,1.0,5.0,30.0,15.0,5.0,15.0,30.0,30.0,60.0,RR,5.0,1.0,right,2020_Feb_21_1419,habits_v_MRI,59.85030829226093,
5.0,0.0,resp1,stim/left_resp_img.png,"[0.5, 0]",left,stim/gold_coin.png,silver,,,,,training,,,gold,val,,,,,0.0,0.0,0.0,0.0,1.0,0.0,2.0,0.0,,,,,,,,,0.0,training_resp,,155.9850068781525,28.92389835242648,2.0,,left,gold,0.0,5.0,40.0,1.0,5.0,30.0,15.0,5.0,15.0,30.0,30.0,60.0,RR,5.0,1.0,right,2020_Feb_21_1419,habits_v_MRI,59.85030829226093,
5.0,0.0,resp1,stim/left_resp_img.png,"[0.5, 0]",left,stim/gold_coin.png,silver,,,,,training,,,gold,val,,,,,0.0,0.0,0.0,0.0,1.0,0.0,2.0,0.0,,,,,,,,,0.0,training_resp,,156.21844451932702,29.15737734141294,2.0,,left,gold,0.0,5.0,40.0,1.0,5.0,30.0,15.0,5.0,15.0,30.0,30.0,60.0,RR,5.0,1.0,right,2020_Feb_21_1419,habits_v_MRI,59.85030829226093,
5.0,0.0,resp1,stim/left_resp_img.png,"[0.5, 0]",left,stim/gold_coin.png,silver,,,,,training,,,gold,val,,,,,0.0,0.0,0.0,0.0,1.0,0.0,2.0,0.0,,,,,,,,,0.0,training_resp,,156.4684497244889,29.4073772681877,2.0,,left,gold,0.0,5.0,40.0,1.0,5.0,30.0,15.0,5.0,15.0,30.0,30.0,60.0,RR,5.0,1.0,right,2020_Feb_21_1419,habits_v_MRI,59.85030829226093,
5.0,0.0,resp1,stim/left_resp_img.png,"[0.5, 0]",left,stim/gold_coin.png,silver,,,,,training,,,gold,val,,,,,0.0,0.0,0.0,0.0,1.0,0.0,2.0,0.0,,,,,,,,,0.0,training_resp,,156.73522923258133,29.67414885852486,2.0,,left,gold,0.0,5.0,40.0,1.0,5.0,30.0,15.0,5.0,15.0,30.0,30.0,60.0,RR,5.0,1.0,right,2020_Feb_21_1419,habits_v_MRI,59.85030829226093,
5.0,0.0,resp1,stim/left_resp_img.png,"[0.5, 0]",left,stim/gold_coin.png,silver,,,,,training,,,gold,val,,,,,0.0,0.0,0.0,0.0,1.0,0.0,2.0,0.0,,,,,,,,,0.0,training_resp,,157.01861442660447,29.95738889544737,2.0,,left,gold,0.0,5.0,40.0,1.0,5.0,30.0,15.0,5.0,15.0,30.0,30.0,60.0,RR,5.0,1.0,right,2020_Feb_21_1419,habits_v_MRI,59.85030829226093,
5.0,0.0,resp1,stim/left_resp_img.png,"[0.5, 0]",left,stim/gold_coin.png,silver,,,,,training,,,gold,val,,,,,0.0,0.0,0.0,0.0,1.0,0.0,2.0,0.0,,,,,,,,,0.0,training_resp,,157.2350774772931,30.1739924113499,2.0,,left,gold,0.0,5.0,40.0,1.0,5.0,30.0,15.0,5.0,15.0,30.0,30.0,60.0,RR,5.0,1.0,right,2020_Feb_21_1419,habits_v_MRI,59.85030829226093,
5.0,0.0,resp1,stim/left_resp_img.png,"[0.5, 0]",left,stim/gold_coin.png,silver,,,,,training,,,gold,val,,,,,0.0,0.0,0.0,0.0,1.0,0.0,2.0,0.0,,,,,,,,,0.0,training_resp,,157.4517997582443,30.3907343398314,2.0,,left,gold,0.0,5.0,40.0,1.0,5.0,30.0,15.0,5.0,15.0,30.0,30.0,60.0,RR,5.0,1.0,right,2020_Feb_21_1419,habits_v_MRI,59.85030829226093,
5.0,0.0,resp1,stim/left_resp_img.png,"[0.5, 0]",left,stim/gold_coin.png,silver,,,,,training,,,gold,val,,,,,0.0,0.0,0.0,0.0,1.0,0.0,2.0,0.0,,,,,,,,,0.0,training_resp,,157.7025222450029,30.64126181753818,2.0,,left,gold,0.0,5.0,40.0,1.0,5.0,30.0,15.0,5.0,15.0,30.0,30.0,60.0,RR,5.0,1.0,right,2020_Feb_21_1419,habits_v_MRI,59.85030829226093,
5.0,0.0,resp1,stim/left_resp_img.png,"[0.5, 0]",left,stim/gold_coin.png,silver,,,,,training,,,gold,val,,,,,0.0,0.0,0.0,0.0,1.0,0.0,2.0,0.0,,,,,,,,,0.0,training_resp,,157.95214065758046,30.89097700151615,2.0,,left,gold,0.0,5.0,40.0,1.0,5.0,30.0,15.0,5.0,15.0,30.0,30.0,60.0,RR,5.0,1.0,right,2020_Feb_21_1419,habits_v_MRI,59.85030829226093,
5.0,0.0,resp1,stim/left_resp_img.png,"[0.5, 0]",left,stim/gold_coin.png,silver,,,,,training,,,gold,val,,,,,0.0,0.0,0.0,0.0,1.0,0.0,2.0,0.0,,,,,,,,,0.0,training_resp,,158.21856504376046,31.15771164279431,2.0,,left,gold,0.0,5.0,40.0,1.0,5.0,30.0,15.0,5.0,15.0,30.0,30.0,60.0,RR,5.0,1.0,right,2020_Feb_21_1419,habits_v_MRI,59.85030829226093,
5.0,0.0,resp1,stim/left_resp_img.png,"[0.5, 0]",left,stim/gold_coin.png,silver,,,,,training,,,gold,val,,,,,0.0,0.0,0.0,0.0,1.0,0.0,2.0,0.0,,,,,,,,,0.0,training_resp,,158.48518297285773,31.424186174175706,2.0,,left,gold,0.0,5.0,40.0,1.0,5.0,30.0,15.0,5.0,15.0,30.0,30.0,60.0,RR,5.0,1.0,right,2020_Feb_21_1419,habits_v_MRI,59.85030829226093,
5.0,0.0,resp1,stim/left_resp_img.png,"[0.5, 0]",left,stim/gold_coin.png,silver,,,,,training,,,gold,val,,,,,0.0,0.0,0.0,0.0,1.0,0.0,2.0,0.0,,,,,,,,,0.0,training_resp,,158.7354526865529,31.674520108965226,2.0,,left,gold,0.0,5.0,40.0,1.0,5.0,30.0,15.0,5.0,15.0,30.0,30.0,60.0,RR,5.0,1.0,right,2020_Feb_21_1419,habits_v_MRI,59.85030829226093,
5.0,0.0,resp1,stim/left_resp_img.png,"[0.5, 0]",left,stim/gold_coin.png,silver,,,,,training,,,gold,val,,,,,0.0,0.0,0.0,0.0,1.0,0.0,2.0,0.0,,,,,,,,,0.0,training_resp,,158.96896158682648,31.907854527351446,2.0,,left,gold,0.0,5.0,40.0,1.0,5.0,30.0,15.0,5.0,15.0,30.0,30.0,60.0,RR,5.0,1.0,right,2020_Feb_21_1419,habits_v_MRI,59.85030829226093,
5.0,0.0,resp1,stim/left_resp_img.png,"[0.5, 0]",left,stim/gold_coin.png,silver,,,,,training,,,gold,val,,,,,0.0,0.0,0.0,0.0,1.0,0.0,2.0,0.0,,,,,,,,,0.0,training_resp,,159.21913159661926,32.15803040203173,2.0,,left,gold,0.0,5.0,40.0,1.0,5.0,30.0,15.0,5.0,15.0,30.0,30.0,60.0,RR,5.0,1.0,right,2020_Feb_21_1419,habits_v_MRI,59.85030829226093,
5.0,0.0,resp1,stim/left_resp_img.png,"[0.5, 0]",left,stim/gold_coin.png,silver,,,,,training,,,gold,val,,,,,0.0,0.0,0.0,0.0,1.0,0.0,2.0,0.0,,,,,,,,,0.0,training_resp,,159.4523472499568,32.39126423676498,2.0,11.0,left,gold,1.0,5.0,40.0,1.0,5.0,30.0,15.0,5.0,15.0,30.0,30.0,60.0,RR,5.0,1.0,right,2020_Feb_21_1419,habits_v_MRI,59.85030829226093,
5.0,0.0,resp1,stim/left_resp_img.png,"[0.5, 0]",left,stim/gold_coin.png,silver,,,,,training,,,gold,val,,,,,0.0,0.0,0.0,0.0,1.0,0.0,2.0,0.0,,,,,,,,,0.0,training_resp,,160.0025474348804,32.94147879083175,2.0,,left,gold,0.0,5.0,40.0,1.0,5.0,30.0,15.0,5.0,15.0,30.0,30.0,60.0,RR,5.0,1.0,right,2020_Feb_21_1419,habits_v_MRI,59.85030829226093,
5.0,0.0,resp1,stim/left_resp_img.png,"[0.5, 0]",left,stim/gold_coin.png,silver,,,,,training,,,gold,val,,,,,0.0,0.0,0.0,0.0,1.0,0.0,2.0,0.0,,,,,,,,,0.0,training_resp,,160.25263474916574,33.19156053336337,2.0,,left,gold,0.0,5.0,40.0,1.0,5.0,30.0,15.0,5.0,15.0,30.0,30.0,60.0,RR,5.0,1.0,right,2020_Feb_21_1419,habits_v_MRI,59.85030829226093,
5.0,0.0,resp1,stim/left_resp_img.png,"[0.5, 0]",left,stim/gold_coin.png,silver,,,,,training,,,gold,val,,,,,0.0,0.0,0.0,0.0,1.0,0.0,2.0,0.0,,,,,,,,,0.0,training_resp,,160.51935883355327,33.45828813663684,2.0,,left,gold,0.0,5.0,40.0,1.0,5.0,30.0,15.0,5.0,15.0,30.0,30.0,60.0,RR,5.0,1.0,right,2020_Feb_21_1419,habits_v_MRI,59.85030829226093,
5.0,0.0,resp1,stim/left_resp_img.png,"[0.5, 0]",left,stim/gold_coin.png,silver,,,,,training,,,gold,val,,,,,0.0,0.0,0.0,0.0,1.0,0.0,2.0,0.0,,,,,,,,,0.0,training_resp,,160.8027886011405,33.74168564705178,2.0,,left,gold,0.0,5.0,40.0,1.0,5.0,30.0,15.0,5.0,15.0,30.0,30.0,60.0,RR,5.0,1.0,right,2020_Feb_21_1419,habits_v_MRI,59.85030829226093,
5.0,0.0,resp1,stim/left_resp_img.png,"[0.5, 0]",left,stim/gold_coin.png,silver,,,,,training,,,gold,val,,,,,0.0,0.0,0.0,0.0,1.0,0.0,2.0,0.0,,,,,,,,,0.0,training_resp,,161.06948775949422,34.00842615333386,2.0,,left,gold,0.0,5.0,40.0,1.0,5.0,30.0,15.0,5.0,15.0,30.0,30.0,60.0,RR,5.0,1.0,right,2020_Feb_21_1419,habits_v_MRI,59.85030829226093,
5.0,0.0,resp1,stim/left_resp_img.png,"[0.5, 0]",left,stim/gold_coin.png,silver,,,,,training,,,gold,val,,,,,0.0,0.0,0.0,0.0,1.0,0.0,2.0,0.0,,,,,,,,,0.0,training_resp,,161.35291752708144,34.29184243141208,2.0,,left,gold,0.0,5.0,40.0,1.0,5.0,30.0,15.0,5.0,15.0,30.0,30.0,60.0,RR,5.0,1.0,right,2020_Feb_21_1419,habits_v_MRI,59.85030829226093,
5.0,0.0,resp1,stim/left_resp_img.png,"[0.5, 0]",left,stim/gold_coin.png,silver,,,,,training,,,gold,val,,,,,0.0,0.0,0.0,0.0,1.0,0.0,2.0,0.0,,,,,,,,,0.0,training_resp,,161.6030095332535,34.54193355794996,2.0,,left,gold,0.0,5.0,40.0,1.0,5.0,30.0,15.0,5.0,15.0,30.0,30.0,60.0,RR,5.0,1.0,right,2020_Feb_21_1419,habits_v_MRI,59.85030829226093,
5.0,0.0,resp1,stim/left_resp_img.png,"[0.5, 0]",left,stim/gold_coin.png,silver,,,,,training,,,gold,val,,,,,0.0,0.0,0.0,0.0,1.0,0.0,2.0,0.0,,,,,,,,,0.0,training_resp,,161.86976440856233,34.80868080875371,2.0,,left,gold,0.0,5.0,40.0,1.0,5.0,30.0,15.0,5.0,15.0,30.0,30.0,60.0,RR,5.0,1.0,right,2020_Feb_21_1419,habits_v_MRI,59.85030829226093,
5.0,0.0,resp1,stim/left_resp_img.png,"[0.5, 0]",left,stim/gold_coin.png,silver,,,,,training,,,gold,val,,,,,0.0,0.0,0.0,0.0,1.0,0.0,2.0,0.0,,,,,,,,,0.0,training_resp,,162.11994996038266,35.05887867708225,2.0,,left,gold,0.0,5.0,40.0,1.0,5.0,30.0,15.0,5.0,15.0,30.0,30.0,60.0,RR,5.0,1.0,right,2020_Feb_21_1419,habits_v_MRI,59.85030829226093,
5.0,0.0,resp1,stim/left_resp_img.png,"[0.5, 0]",left,stim/gold_coin.png,silver,,,,,training,,,gold,val,,,,,0.0,0.0,0.0,0.0,1.0,0.0,2.0,0.0,,,,,,,,,0.0,training_resp,,162.4036556731444,35.342168859089725,2.0,,left,gold,0.0,5.0,40.0,1.0,5.0,30.0,15.0,5.0,15.0,30.0,30.0,60.0,RR,5.0,1.0,right,2020_Feb_21_1419,habits_v_MRI,59.85030829226093,
5.0,0.0,resp1,stim/left_resp_img.png,"[0.5, 0]",left,stim/gold_coin.png,silver,,,,,training,,,gold,val,,,,,0.0,0.0,0.0,0.0,1.0,0.0,2.0,0.0,,,,,,,,,0.0,training_resp,,162.65384503733367,35.59263798070606,2.0,25.0,left,gold,1.0,5.0,40.0,1.0,5.0,30.0,15.0,5.0,15.0,30.0,30.0,60.0,RR,5.0,1.0,right,2020_Feb_21_1419,habits_v_MRI,59.85030829226093,
5.0,0.0,resp1,stim/left_resp_img.png,"[0.5, 0]",left,stim/gold_coin.png,silver,,,,,training,,,gold,val,,,,,0.0,0.0,0.0,0.0,1.0,0.0,2.0,0.0,,,,,,,,,0.0,training_resp,,163.4201991908485,36.35912028304301,2.0,,left,gold,0.0,5.0,40.0,1.0,5.0,30.0,15.0,5.0,15.0,30.0,30.0,60.0,RR,5.0,1.0,right,2020_Feb_21_1419,habits_v_MRI,59.85030829226093,
5.0,0.0,resp1,stim/left_resp_img.png,"[0.5, 0]",left,stim/gold_coin.png,silver,,,,,training,,,gold,val,,,,,0.0,0.0,0.0,0.0,1.0,0.0,2.0,0.0,,,,,,,,,0.0,training_resp,,164.0204231727403,36.9593304824084,2.0,,left,gold,0.0,5.0,40.0,1.0,5.0,30.0,15.0,5.0,15.0,30.0,30.0,60.0,RR,5.0,1.0,right,2020_Feb_21_1419,habits_v_MRI,59.85030829226093,
5.0,0.0,resp1,stim/left_resp_img.png,"[0.5, 0]",left,stim/gold_coin.png,silver,,,,,training,,,gold,val,,,,,0.0,0.0,0.0,0.0,1.0,0.0,2.0,0.0,,,,,,,,,0.0,training_resp,,164.33714671467897,37.27606810012367,2.0,,left,gold,0.0,5.0,40.0,1.0,5.0,30.0,15.0,5.0,15.0,30.0,30.0,60.0,RR,5.0,1.0,right,2020_Feb_21_1419,habits_v_MRI,59.85030829226093,
5.0,0.0,resp1,stim/left_resp_img.png,"[0.5, 0]",left,stim/gold_coin.png,silver,,,,,training,,,gold,val,,,,,0.0,0.0,0.0,0.0,1.0,0.0,2.0,0.0,,,,,,,,,0.0,training_resp,,164.6039690367179,37.542892768164165,2.0,,left,gold,0.0,5.0,40.0,1.0,5.0,30.0,15.0,5.0,15.0,30.0,30.0,60.0,RR,5.0,1.0,right,2020_Feb_21_1419,habits_v_MRI,59.85030829226093,
5.0,0.0,resp1,stim/left_resp_img.png,"[0.5, 0]",left,stim/gold_coin.png,silver,,,,,training,,,gold,val,,,,,0.0,0.0,0.0,0.0,1.0,0.0,2.0,0.0,,,,,,,,,0.0,training_resp,,164.85405605775304,37.7929610213032,2.0,,left,gold,0.0,5.0,40.0,1.0,5.0,30.0,15.0,5.0,15.0,30.0,30.0,60.0,RR,5.0,1.0,right,2020_Feb_21_1419,habits_v_MRI,59.85030829226093,
5.0,0.0,resp1,stim/left_resp_img.png,"[0.5, 0]",left,stim/gold_coin.png,silver,,,,,training,,,gold,val,,,,,0.0,0.0,0.0,0.0,1.0,0.0,2.0,0.0,,,,,,,,,0.0,training_resp,,165.12094054813497,38.0598657457158,2.0,,left,gold,0.0,5.0,40.0,1.0,5.0,30.0,15.0,5.0,15.0,30.0,30.0,60.0,RR,5.0,1.0,right,2020_Feb_21_1419,habits_v_MRI,59.85030829226093,
5.0,0.0,resp1,stim/left_resp_img.png,"[0.5, 0]",left,stim/gold_coin.png,silver,,,,,training,,,gold,val,,,,,0.0,0.0,0.0,0.0,1.0,0.0,2.0,0.0,,,,,,,,,0.0,training_resp,,165.42119886912403,38.35990413173568,2.0,,left,gold,0.0,5.0,40.0,1.0,5.0,30.0,15.0,5.0,15.0,30.0,30.0,60.0,RR,5.0,1.0,right,2020_Feb_21_1419,habits_v_MRI,59.85030829226093,
5.0,0.0,resp1,stim/left_resp_img.png,"[0.5, 0]",left,stim/gold_coin.png,silver,,,,,training,,,gold,val,,,,,0.0,0.0,0.0,0.0,1.0,0.0,2.0,0.0,,,,,,,,,0.0,training_resp,,165.72102641069796,38.65993782586884,2.0,,left,gold,0.0,5.0,40.0,1.0,5.0,30.0,15.0,5.0,15.0,30.0,30.0,60.0,RR,5.0,1.0,right,2020_Feb_21_1419,habits_v_MRI,59.85030829226093,
5.0,0.0,resp1,stim/left_resp_img.png,"[0.5, 0]",left,stim/gold_coin.png,silver,,,,,training,,,gold,val,,,,,0.0,0.0,0.0,0.0,1.0,0.0,2.0,0.0,,,,,,,,,0.0,training_resp,,166.0210847374983,38.959991167415865,2.0,,left,gold,0.0,5.0,40.0,1.0,5.0,30.0,15.0,5.0,15.0,30.0,30.0,60.0,RR,5.0,1.0,right,2020_Feb_21_1419,habits_v_MRI,59.85030829226093,
5.0,0.0,resp1,stim/left_resp_img.png,"[0.5, 0]",left,stim/gold_coin.png,silver,,,,,training,,,gold,val,,,,,0.0,0.0,0.0,0.0,1.0,0.0,2.0,0.0,,,,,,,,,0.0,training_resp,,166.27106032473966,39.20998552243691,2.0,,left,gold,0.0,5.0,40.0,1.0,5.0,30.0,15.0,5.0,15.0,30.0,30.0,60.0,RR,5.0,1.0,right,2020_Feb_21_1419,habits_v_MRI,59.85030829226093,
5.0,0.0,resp1,stim/left_resp_img.png,"[0.5, 0]",left,stim/gold_coin.png,silver,,,,,training,,,gold,val,,,,,0.0,0.0,0.0,0.0,1.0,0.0,2.0,0.0,,,,,,,,,0.0,training_resp,,166.53790903906338,39.47683628939558,2.0,,left,gold,0.0,5.0,40.0,1.0,5.0,30.0,15.0,5.0,15.0,30.0,30.0,60.0,RR,5.0,1.0,right,2020_Feb_21_1419,habits_v_MRI,59.85030829226093,
5.0,0.0,resp1,stim/left_resp_img.png,"[0.5, 0]",left,stim/gold_coin.png,silver,,,,,training,,,gold,val,,,,,0.0,0.0,0.0,0.0,1.0,0.0,2.0,0.0,,,,,,,,,0.0,training_resp,,166.7879227482481,39.72684853244573,2.0,,left,gold,0.0,5.0,40.0,1.0,5.0,30.0,15.0,5.0,15.0,30.0,30.0,60.0,RR,5.0,1.0,right,2020_Feb_21_1419,habits_v_MRI,59.85030829226093,
5.0,0.0,resp1,stim/left_resp_img.png,"[0.5, 0]",left,stim/gold_coin.png,silver,,,,,training,,,gold,val,,,,,0.0,0.0,0.0,0.0,1.0,0.0,2.0,0.0,,,,,,,,,0.0,training_resp,,167.28888972953428,40.22741435212083,2.0,,left,gold,0.0,5.0,40.0,1.0,5.0,30.0,15.0,5.0,15.0,30.0,30.0,60.0,RR,5.0,1.0,right,2020_Feb_21_1419,habits_v_MRI,59.85030829226093,
5.0,0.0,resp1,stim/left_resp_img.png,"[0.5, 0]",left,stim/gold_coin.png,silver,,,,,training,,,gold,val,,,,,0.0,0.0,0.0,0.0,1.0,0.0,2.0,0.0,,,,,,,,,0.0,training_resp,,167.58812168694567,40.52705157652963,2.0,,left,gold,0.0,5.0,40.0,1.0,5.0,30.0,15.0,5.0,15.0,30.0,30.0,60.0,RR,5.0,1.0,right,2020_Feb_21_1419,habits_v_MRI,59.85030829226093,
5.0,0.0,resp1,stim/left_resp_img.png,"[0.5, 0]",left,stim/gold_coin.png,silver,,,,,training,,,gold,val,,,,,0.0,0.0,0.0,0.0,1.0,0.0,2.0,0.0,,,,,,,,,0.0,training_resp,,167.87160453211982,40.8105270905653,2.0,,left,gold,0.0,5.0,40.0,1.0,5.0,30.0,15.0,5.0,15.0,30.0,30.0,60.0,RR,5.0,1.0,right,2020_Feb_21_1419,habits_v_MRI,59.85030829226093,
5.0,0.0,resp1,stim/left_resp_img.png,"[0.5, 0]",left,stim/gold_coin.png,silver,,,,,training,,,gold,val,,,,,0.0,0.0,0.0,0.0,1.0,0.0,2.0,0.0,,,,,,,,,0.0,training_resp,,168.33830914495047,41.27722730464302,2.0,,left,gold,0.0,5.0,40.0,1.0,5.0,30.0,15.0,5.0,15.0,30.0,30.0,60.0,RR,5.0,1.0,right,2020_Feb_21_1419,habits_v_MRI,59.85030829226093,
5.0,0.0,resp1,stim/left_resp_img.png,"[0.5, 0]",left,stim/gold_coin.png,silver,,,,,training,,,gold,val,,,,,0.0,0.0,0.0,0.0,1.0,0.0,2.0,0.0,,,,,,,,,0.0,training_resp,,168.5218241593102,41.46075698139612,2.0,,left,gold,0.0,5.0,40.0,1.0,5.0,30.0,15.0,5.0,15.0,30.0,30.0,60.0,RR,5.0,1.0,right,2020_Feb_21_1419,habits_v_MRI,59.85030829226093,
5.0,0.0,resp1,stim/left_resp_img.png,"[0.5, 0]",left,stim/gold_coin.png,silver,,,,,training,,,gold,val,,,,,0.0,0.0,0.0,0.0,1.0,0.0,2.0,0.0,,,,,,,,,0.0,training_resp,,168.93856098526155,41.87747357331682,2.0,,left,gold,0.0,5.0,40.0,1.0,5.0,30.0,15.0,5.0,15.0,30.0,30.0,60.0,RR,5.0,1.0,right,2020_Feb_21_1419,habits_v_MRI,59.85030829226093,
5.0,0.0,resp1,stim/left_resp_img.png,"[0.5, 0]",left,stim/gold_coin.png,silver,,,,,training,,,gold,val,,,,,0.0,0.0,0.0,0.0,1.0,0.0,2.0,0.0,,,,,,,,,0.0,training_resp,,169.2220221302705,42.160944395465776,2.0,,left,gold,0.0,5.0,40.0,1.0,5.0,30.0,15.0,5.0,15.0,30.0,30.0,60.0,RR,5.0,1.0,right,2020_Feb_21_1419,habits_v_MRI,59.85030829226093,
5.0,0.0,resp1,stim/left_resp_img.png,"[0.5, 0]",left,stim/gold_coin.png,silver,,,,,training,,,gold,val,,,,,0.0,0.0,0.0,0.0,1.0,0.0,2.0,0.0,,,,,,,,,0.0,training_resp,,169.47204375721049,42.410966608906165,2.0,,left,gold,0.0,5.0,40.0,1.0,5.0,30.0,15.0,5.0,15.0,30.0,30.0,60.0,RR,5.0,1.0,right,2020_Feb_21_1419,habits_v_MRI,59.85030829226093,
5.0,0.0,resp1,stim/left_resp_img.png,"[0.5, 0]",left,stim/gold_coin.png,silver,,,,,training,,,gold,val,,,,,0.0,0.0,0.0,0.0,1.0,0.0,2.0,0.0,,,,,,,,,0.0,training_resp,,169.7888831315795,42.72781624691561,2.0,,left,gold,0.0,5.0,40.0,1.0,5.0,30.0,15.0,5.0,15.0,30.0,30.0,60.0,RR,5.0,1.0,right,2020_Feb_21_1419,habits_v_MRI,59.85030829226093,
5.0,0.0,resp1,stim/left_resp_img.png,"[0.5, 0]",left,stim/gold_coin.png,silver,,,,,training,,,gold,val,,,,,0.0,0.0,0.0,0.0,1.0,0.0,2.0,0.0,,,,,,,,,0.0,training_resp,,170.0388856974896,42.977814120822586,2.0,,left,gold,0.0,5.0,40.0,1.0,5.0,30.0,15.0,5.0,15.0,30.0,30.0,60.0,RR,5.0,1.0,right,2020_Feb_21_1419,habits_v_MRI,59.85030829226093,
5.0,0.0,resp1,stim/left_resp_img.png,"[0.5, 0]",left,stim/gold_coin.png,silver,,,,,training,,,gold,val,,,,,0.0,0.0,0.0,0.0,1.0,0.0,2.0,0.0,,,,,,,,,0.0,training_resp,,170.28902227710932,43.227950407308526,2.0,,left,gold,0.0,5.0,40.0,1.0,5.0,30.0,15.0,5.0,15.0,30.0,30.0,60.0,RR,5.0,1.0,right,2020_Feb_21_1419,habits_v_MRI,59.85030829226093,
5.0,0.0,resp1,stim/left_resp_img.png,"[0.5, 0]",left,stim/gold_coin.png,silver,,,,,training,,,gold,val,,,,,0.0,0.0,0.0,0.0,1.0,0.0,2.0,0.0,,,,,,,,,0.0,training_resp,,170.53909082361497,43.4780160211958,2.0,,left,gold,0.0,5.0,40.0,1.0,5.0,30.0,15.0,5.0,15.0,30.0,30.0,60.0,RR,5.0,1.0,right,2020_Feb_21_1419,habits_v_MRI,59.85030829226093,
5.0,0.0,resp1,stim/left_resp_img.png,"[0.5, 0]",left,stim/gold_coin.png,silver,,,,,training,,,gold,val,,,,,0.0,0.0,0.0,0.0,1.0,0.0,2.0,0.0,,,,,,,,,0.0,training_resp,,170.80592428904492,43.74485417862888,2.0,13.0,left,gold,1.0,5.0,40.0,1.0,5.0,30.0,15.0,5.0,15.0,30.0,30.0,60.0,RR,5.0,1.0,right,2020_Feb_21_1419,habits_v_MRI,59.85030829226093,
5.0,0.0,resp1,stim/left_resp_img.png,"[0.5, 0]",left,stim/gold_coin.png,silver,,,,,training,,,gold,val,,,,,0.0,0.0,0.0,0.0,1.0,0.0,2.0,0.0,,,,,,,,,0.0,training_resp,,171.35678633197676,44.29530098405667,2.0,,left,gold,0.0,5.0,40.0,1.0,5.0,30.0,15.0,5.0,15.0,30.0,30.0,60.0,RR,5.0,1.0,right,2020_Feb_21_1419,habits_v_MRI,59.85030829226093,
5.0,0.0,resp1,stim/left_resp_img.png,"[0.5, 0]",left,stim/gold_coin.png,silver,,,,,training,,,gold,val,,,,,0.0,0.0,0.0,0.0,1.0,0.0,2.0,0.0,,,,,,,,,0.0,training_resp,,171.772719368455,44.71163049025927,2.0,,left,gold,0.0,5.0,40.0,1.0,5.0,30.0,15.0,5.0,15.0,30.0,30.0,60.0,RR,5.0,1.0,right,2020_Feb_21_1419,habits_v_MRI,59.85030829226093,
5.0,0.0,resp1,stim/left_resp_img.png,"[0.5, 0]",left,stim/gold_coin.png,silver,,,,,training,,,gold,val,,,,,0.0,0.0,0.0,0.0,1.0,0.0,2.0,0.0,,,,,,,,,0.0,training_resp,,172.12295280757826,45.06184134935029,2.0,,left,gold,0.0,5.0,40.0,1.0,5.0,30.0,15.0,5.0,15.0,30.0,30.0,60.0,RR,5.0,1.0,right,2020_Feb_21_1419,habits_v_MRI,59.85030829226093,
5.0,0.0,resp1,stim/left_resp_img.png,"[0.5, 0]",left,stim/gold_coin.png,silver,,,,,training,,,gold,val,,,,,0.0,0.0,0.0,0.0,1.0,0.0,2.0,0.0,,,,,,,,,0.0,training_resp,,172.58966680429876,45.52859053574503,2.0,,left,gold,0.0,5.0,40.0,1.0,5.0,30.0,15.0,5.0,15.0,30.0,30.0,60.0,RR,5.0,1.0,right,2020_Feb_21_1419,habits_v_MRI,59.85030829226093,
5.0,0.0,resp1,stim/left_resp_img.png,"[0.5, 0]",left,stim/gold_coin.png,silver,,,,,training,,,gold,val,,,,,0.0,0.0,0.0,0.0,1.0,0.0,2.0,0.0,,,,,,,,,0.0,training_resp,,172.8897858330747,45.82868757110555,2.0,,left,gold,0.0,5.0,40.0,1.0,5.0,30.0,15.0,5.0,15.0,30.0,30.0,60.0,RR,5.0,1.0,right,2020_Feb_21_1419,habits_v_MRI,59.85030829226093,
5.0,0.0,resp1,stim/left_resp_img.png,"[0.5, 0]",left,stim/gold_coin.png,silver,,,,,training,,,gold,val,,,,,0.0,0.0,0.0,0.0,1.0,0.0,2.0,0.0,,,,,,,,,0.0,training_resp,,173.15649290918373,46.09541722713038,2.0,,left,gold,0.0,5.0,40.0,1.0,5.0,30.0,15.0,5.0,15.0,30.0,30.0,60.0,RR,5.0,1.0,right,2020_Feb_21_1419,habits_v_MRI,59.85030829226093,
5.0,0.0,resp1,stim/left_resp_img.png,"[0.5, 0]",left,stim/gold_coin.png,silver,,,,,training,,,gold,val,,,,,0.0,0.0,0.0,0.0,1.0,0.0,2.0,0.0,,,,,,,,,0.0,training_resp,,173.4065470865462,46.34546378010418,2.0,,left,gold,0.0,5.0,40.0,1.0,5.0,30.0,15.0,5.0,15.0,30.0,30.0,60.0,RR,5.0,1.0,right,2020_Feb_21_1419,habits_v_MRI,59.85030829226093,
5.0,0.0,resp1,stim/left_resp_img.png,"[0.5, 0]",left,stim/gold_coin.png,silver,,,,,training,,,gold,val,,,,,0.0,0.0,0.0,0.0,1.0,0.0,2.0,0.0,,,,,,,,,0.0,training_resp,,173.67390458402224,46.61261688452214,2.0,,left,gold,0.0,5.0,40.0,1.0,5.0,30.0,15.0,5.0,15.0,30.0,30.0,60.0,RR,5.0,1.0,right,2020_Feb_21_1419,habits_v_MRI,59.85030829226093,
