list,trial_num_python,condition,stimulus,position,corrResp,coin_img,devalued_coin,stimulus_choice1,stimulus_choice2,position1,position2,phase,corrResp1,corrResp2,outcome,cond_val,outcome_choice1,outcome_choice2,cond_val1,cond_val2,blockLoop.thisRepN,blockLoop.thisTrialN,blockLoop.thisN,blockLoop.thisIndex,trialLoop.thisRepN,trialLoop.thisTrialN,trialLoop.thisN,trialLoop.thisIndex,choice_trialLoop.thisRepN,choice_trialLoop.thisTrialN,choice_trialLoop.thisN,choice_trialLoop.thisIndex,contingency_trialLoop.thisRepN,contingency_trialLoop.thisTrialN,contingency_trialLoop.thisN,contingency_trialLoop.thisIndex,run,event,duration,globalClock_t,routineClock_t,trial,nResp_untilRnf,resp,selected_coin,wasRnf,participant,task_ordering,hand,date,expName,n_repeat_training,credits_per_rnf,cost_response,min_resp_bet_rnf,max_resp_bet_rnf,mean_resp_bet_rnf,sigma_resp_bet_rnf,min_ITI,max_ITI,min_trial_duration,max_trial_duration,schedule,frameRate,Unnamed: 65
3.0,0.0,resp1,stim/right_resp_img.png,"[-0.5, 0]",right,stim/silver_coin.png,gold,,,,,training,,,silver,val,,,,,0.0,0.0,0.0,0.0,0.0,0.0,0.0,0.0,,,,,,,,,0.0,instr_before_block,6.0,0.00593176134862,,,,,,,259.0,2.0,right,2023_Nov_07_2051,habits_v_MRI,5.0,40.0,1.0,5.0,30.0,15.0,5.0,15.0,30.0,30.0,60.0,RR,60.02131475831061,
3.0,0.0,resp1,stim/right_resp_img.png,"[-0.5, 0]",right,stim/silver_coin.png,gold,,,,,training,,,silver,val,,,,,0.0,0.0,0.0,0.0,0.0,0.0,0.0,0.0,,,,,,,,,0.0,training_period_start,45.0,6.035711677977815,0.0,0.0,9.0,,,,259.0,2.0,right,2023_Nov_07_2051,habits_v_MRI,5.0,40.0,1.0,5.0,30.0,15.0,5.0,15.0,30.0,30.0,60.0,RR,60.02131475831061,
3.0,0.0,resp1,stim/right_resp_img.png,"[-0.5, 0]",right,stim/silver_coin.png,gold,,,,,training,,,silver,val,,,,,0.0,0.0,0.0,0.0,0.0,0.0,0.0,0.0,,,,,,,,,0.0,training_resp,,7.198418412124738,1.1820573897566646,0.0,,right,silver,0.0,259.0,2.0,right,2023_Nov_07_2051,habits_v_MRI,5.0,40.0,1.0,5.0,30.0,15.0,5.0,15.0,30.0,30.0,60.0,RR,60.02131475831061,
3.0,0.0,resp1,stim/right_resp_img.png,"[-0.5, 0]",right,stim/silver_coin.png,gold,,,,,training,,,silver,val,,,,,0.0,0.0,0.0,0.0,0.0,0.0,0.0,0.0,,,,,,,,,0.0,training_resp,,7.715028839185834,1.6987264659255743,0.0,,right,silver,0.0,259.0,2.0,right,2023_Nov_07_2051,habits_v_MRI,5.0,40.0,1.0,5.0,30.0,15.0,5.0,15.0,30.0,30.0,60.0,RR,60.02131475831061,
3.0,0.0,resp1,stim/right_resp_img.png,"[-0.5, 0]",right,stim/silver_coin.png,gold,,,,,training,,,silver,val,,,,,0.0,0.0,0.0,0.0,0.0,0.0,0.0,0.0,,,,,,,,,0.0,training_resp,,8.06479073886294,2.048726480570622,0.0,,right,silver,0.0,259.0,2.0,right,2023_Nov_07_2051,habits_v_MRI,5.0,40.0,1.0,5.0,30.0,15.0,5.0,15.0,30.0,30.0,60.0,RR,60.02131475831061,
3.0,0.0,resp1,stim/right_resp_img.png,"[-0.5, 0]",right,stim/silver_coin.png,gold,,,,,training,,,silver,val,,,,,0.0,0.0,0.0,0.0,0.0,0.0,0.0,0.0,,,,,,,,,0.0,training_resp,,8.414692809688859,2.398668432724662,0.0,,right,silver,0.0,259.0,2.0,right,2023_Nov_07_2051,habits_v_MRI,5.0,40.0,1.0,5.0,30.0,15.0,5.0,15.0,30.0,30.0,60.0,RR,60.02131475831061,
3.0,0.0,resp1,stim/right_resp_img.png,"[-0.5, 0]",right,stim/silver_coin.png,gold,,,,,training,,,silver,val,,,,,0.0,0.0,0.0,0.0,0.0,0.0,0.0,0.0,,,,,,,,,0.0,training_resp,,8.748050580150448,2.7319916002452374,0.0,,right,silver,0.0,259.0,2.0,right,2023_Nov_07_2051,habits_v_MRI,5.0,40.0,1.0,5.0,30.0,15.0,5.0,15.0,30.0,30.0,60.0,RR,60.02131475831061,
3.0,0.0,resp1,stim/right_resp_img.png,"[-0.5, 0]",right,stim/silver_coin.png,gold,,,,,training,,,silver,val,,,,,0.0,0.0,0.0,0.0,0.0,0.0,0.0,0.0,,,,,,,,,0.0,training_resp,,9.081261727958918,3.06525670515839,0.0,,right,silver,0.0,259.0,2.0,right,2023_Nov_07_2051,habits_v_MRI,5.0,40.0,1.0,5.0,30.0,15.0,5.0,15.0,30.0,30.0,60.0,RR,60.02131475831061,
3.0,0.0,resp1,stim/right_resp_img.png,"[-0.5, 0]",right,stim/silver_coin.png,gold,,,,,training,,,silver,val,,,,,0.0,0.0,0.0,0.0,0.0,0.0,0.0,0.0,,,,,,,,,0.0,training_resp,,9.414933563908562,3.3986528906971216,0.0,,right,silver,0.0,259.0,2.0,right,2023_Nov_07_2051,habits_v_MRI,5.0,40.0,1.0,5.0,30.0,15.0,5.0,15.0,30.0,30.0,60.0,RR,60.02131475831061,
3.0,0.0,resp1,stim/right_resp_img.png,"[-0.5, 0]",right,stim/silver_coin.png,gold,,,,,training,,,silver,val,,,,,0.0,0.0,0.0,0.0,0.0,0.0,0.0,0.0,,,,,,,,,0.0,training_resp,,9.764745608437806,3.7485822333255774,0.0,,right,silver,0.0,259.0,2.0,right,2023_Nov_07_2051,habits_v_MRI,5.0,40.0,1.0,5.0,30.0,15.0,5.0,15.0,30.0,30.0,60.0,RR,60.02131475831061,
3.0,0.0,resp1,stim/right_resp_img.png,"[-0.5, 0]",right,stim/silver_coin.png,gold,,,,,training,,,silver,val,,,,,0.0,0.0,0.0,0.0,0.0,0.0,0.0,0.0,,,,,,,,,0.0,training_resp,,10.114853830542415,4.098568465444259,0.0,15.0,right,silver,1.0,259.0,2.0,right,2023_Nov_07_2051,habits_v_MRI,5.0,40.0,1.0,5.0,30.0,15.0,5.0,15.0,30.0,30.0,60.0,RR,60.02131475831061,
3.0,0.0,resp1,stim/right_resp_img.png,"[-0.5, 0]",right,stim/silver_coin.png,gold,,,,,training,,,silver,val,,,,,0.0,0.0,0.0,0.0,0.0,0.0,0.0,0.0,,,,,,,,,0.0,training_resp,,10.797943589626811,4.781882263836451,0.0,,right,silver,0.0,259.0,2.0,right,2023_Nov_07_2051,habits_v_MRI,5.0,40.0,1.0,5.0,30.0,15.0,5.0,15.0,30.0,30.0,60.0,RR,60.02131475831061,
3.0,0.0,resp1,stim/right_resp_img.png,"[-0.5, 0]",right,stim/silver_coin.png,gold,,,,,training,,,silver,val,,,,,0.0,0.0,0.0,0.0,0.0,0.0,0.0,0.0,,,,,,,,,0.0,training_resp,,11.081221260130404,5.065174596616998,0.0,,right,silver,0.0,259.0,2.0,right,2023_Nov_07_2051,habits_v_MRI,5.0,40.0,1.0,5.0,30.0,15.0,5.0,15.0,30.0,30.0,60.0,RR,60.02131475831061,
3.0,0.0,resp1,stim/right_resp_img.png,"[-0.5, 0]",right,stim/silver_coin.png,gold,,,,,training,,,silver,val,,,,,0.0,0.0,0.0,0.0,0.0,0.0,0.0,0.0,,,,,,,,,0.0,training_resp,,11.431213650503196,5.415122413658537,0.0,,right,silver,0.0,259.0,2.0,right,2023_Nov_07_2051,habits_v_MRI,5.0,40.0,1.0,5.0,30.0,15.0,5.0,15.0,30.0,30.0,60.0,RR,60.02131475831061,
3.0,0.0,resp1,stim/right_resp_img.png,"[-0.5, 0]",right,stim/silver_coin.png,gold,,,,,training,,,silver,val,,,,,0.0,0.0,0.0,0.0,0.0,0.0,0.0,0.0,,,,,,,,,0.0,training_resp,,11.731201304821298,5.71510185720399,0.0,,right,silver,0.0,259.0,2.0,right,2023_Nov_07_2051,habits_v_MRI,5.0,40.0,1.0,5.0,30.0,15.0,5.0,15.0,30.0,30.0,60.0,RR,60.02131475831061,
3.0,0.0,resp1,stim/right_resp_img.png,"[-0.5, 0]",right,stim/silver_coin.png,gold,,,,,training,,,silver,val,,,,,0.0,0.0,0.0,0.0,0.0,0.0,0.0,0.0,,,,,,,,,0.0,training_resp,,12.014395693782715,5.998394483234733,0.0,,right,silver,0.0,259.0,2.0,right,2023_Nov_07_2051,habits_v_MRI,5.0,40.0,1.0,5.0,30.0,15.0,5.0,15.0,30.0,30.0,60.0,RR,60.02131475831061,
3.0,0.0,resp1,stim/right_resp_img.png,"[-0.5, 0]",right,stim/silver_coin.png,gold,,,,,training,,,silver,val,,,,,0.0,0.0,0.0,0.0,0.0,0.0,0.0,0.0,,,,,,,,,0.0,training_resp,,12.297976873000152,6.281763646169566,0.0,,right,silver,0.0,259.0,2.0,right,2023_Nov_07_2051,habits_v_MRI,5.0,40.0,1.0,5.0,30.0,15.0,5.0,15.0,30.0,30.0,60.0,RR,60.02131475831061,
3.0,0.0,resp1,stim/right_resp_img.png,"[-0.5, 0]",right,stim/silver_coin.png,gold,,,,,training,,,silver,val,,,,,0.0,0.0,0.0,0.0,0.0,0.0,0.0,0.0,,,,,,,,,0.0,training_resp,,12.564522273023613,6.548368281684816,0.0,,right,silver,0.0,259.0,2.0,right,2023_Nov_07_2051,habits_v_MRI,5.0,40.0,1.0,5.0,30.0,15.0,5.0,15.0,30.0,30.0,60.0,RR,60.02131475831061,
3.0,0.0,resp1,stim/right_resp_img.png,"[-0.5, 0]",right,stim/silver_coin.png,gold,,,,,training,,,silver,val,,,,,0.0,0.0,0.0,0.0,0.0,0.0,0.0,0.0,,,,,,,,,0.0,training_resp,,12.881214926135726,6.86505448340904,0.0,,right,silver,0.0,259.0,2.0,right,2023_Nov_07_2051,habits_v_MRI,5.0,40.0,1.0,5.0,30.0,15.0,5.0,15.0,30.0,30.0,60.0,RR,60.02131475831061,
3.0,0.0,resp1,stim/right_resp_img.png,"[-0.5, 0]",right,stim/silver_coin.png,gold,,,,,training,,,silver,val,,,,,0.0,0.0,0.0,0.0,0.0,0.0,0.0,0.0,,,,,,,,,0.0,training_resp,,13.197881773579866,7.181699924054556,0.0,,right,silver,0.0,259.0,2.0,right,2023_Nov_07_2051,habits_v_MRI,5.0,40.0,1.0,5.0,30.0,15.0,5.0,15.0,30.0,30.0,60.0,RR,60.02131475831061,
3.0,0.0,resp1,stim/right_resp_img.png,"[-0.5, 0]",right,stim/silver_coin.png,gold,,,,,training,,,silver,val,,,,,0.0,0.0,0.0,0.0,0.0,0.0,0.0,0.0,,,,,,,,,0.0,training_resp,,13.448257347219624,7.431724483263679,0.0,,right,silver,0.0,259.0,2.0,right,2023_Nov_07_2051,habits_v_MRI,5.0,40.0,1.0,5.0,30.0,15.0,5.0,15.0,30.0,30.0,60.0,RR,60.02131475831061,
3.0,0.0,resp1,stim/right_resp_img.png,"[-0.5, 0]",right,stim/silver_coin.png,gold,,,,,training,,,silver,val,,,,,0.0,0.0,0.0,0.0,0.0,0.0,0.0,0.0,,,,,,,,,0.0,training_resp,,13.714770490303636,7.6982326412107795,0.0,,right,silver,0.0,259.0,2.0,right,2023_Nov_07_2051,habits_v_MRI,5.0,40.0,1.0,5.0,30.0,15.0,5.0,15.0,30.0,30.0,60.0,RR,60.02131475831061,
3.0,0.0,resp1,stim/right_resp_img.png,"[-0.5, 0]",right,stim/silver_coin.png,gold,,,,,training,,,silver,val,,,,,0.0,0.0,0.0,0.0,0.0,0.0,0.0,0.0,,,,,,,,,0.0,training_resp,,14.231194413616322,8.214953328482807,0.0,,right,silver,0.0,259.0,2.0,right,2023_Nov_07_2051,habits_v_MRI,5.0,40.0,1.0,5.0,30.0,15.0,5.0,15.0,30.0,30.0,60.0,RR,60.02131475831061,
3.0,0.0,resp1,stim/right_resp_img.png,"[-0.5, 0]",right,stim/silver_coin.png,gold,,,,,training,,,silver,val,,,,,0.0,0.0,0.0,0.0,0.0,0.0,0.0,0.0,,,,,,,,,0.0,training_resp,,14.5650454221759,8.548242772812955,0.0,,right,silver,0.0,259.0,2.0,right,2023_Nov_07_2051,habits_v_MRI,5.0,40.0,1.0,5.0,30.0,15.0,5.0,15.0,30.0,30.0,60.0,RR,60.02131475831061,
3.0,0.0,resp1,stim/right_resp_img.png,"[-0.5, 0]",right,stim/silver_coin.png,gold,,,,,training,,,silver,val,,,,,0.0,0.0,0.0,0.0,0.0,0.0,0.0,0.0,,,,,,,,,0.0,training_resp,,14.86436946305912,8.848259165300988,0.0,,right,silver,0.0,259.0,2.0,right,2023_Nov_07_2051,habits_v_MRI,5.0,40.0,1.0,5.0,30.0,15.0,5.0,15.0,30.0,30.0,60.0,RR,60.02131475831061,
3.0,0.0,resp1,stim/right_resp_img.png,"[-0.5, 0]",right,stim/silver_coin.png,gold,,,,,training,,,silver,val,,,,,0.0,0.0,0.0,0.0,0.0,0.0,0.0,0.0,,,,,,,,,0.0,training_resp,,15.197818139451556,9.18156561779324,0.0,17.0,right,silver,1.0,259.0,2.0,right,2023_Nov_07_2051,habits_v_MRI,5.0,40.0,1.0,5.0,30.0,15.0,5.0,15.0,30.0,30.0,60.0,RR,60.02131475831061,
3.0,0.0,resp1,stim/right_resp_img.png,"[-0.5, 0]",right,stim/silver_coin.png,gold,,,,,training,,,silver,val,,,,,0.0,0.0,0.0,0.0,0.0,0.0,0.0,0.0,,,,,,,,,0.0,training_resp,,16.064297500648536,10.048105094232596,0.0,,right,silver,0.0,259.0,2.0,right,2023_Nov_07_2051,habits_v_MRI,5.0,40.0,1.0,5.0,30.0,15.0,5.0,15.0,30.0,30.0,60.0,RR,60.02131475831061,
3.0,0.0,resp1,stim/right_resp_img.png,"[-0.5, 0]",right,stim/silver_coin.png,gold,,,,,training,,,silver,val,,,,,0.0,0.0,0.0,0.0,0.0,0.0,0.0,0.0,,,,,,,,,0.0,training_resp,,16.664241432212293,10.64808861387428,0.0,,right,silver,0.0,259.0,2.0,right,2023_Nov_07_2051,habits_v_MRI,5.0,40.0,1.0,5.0,30.0,15.0,5.0,15.0,30.0,30.0,60.0,RR,60.02131475831061,
3.0,0.0,resp1,stim/right_resp_img.png,"[-0.5, 0]",right,stim/silver_coin.png,gold,,,,,training,,,silver,val,,,,,0.0,0.0,0.0,0.0,0.0,0.0,0.0,0.0,,,,,,,,,0.0,training_resp,,17.030980755225755,11.014782190672122,0.0,,right,silver,0.0,259.0,2.0,right,2023_Nov_07_2051,habits_v_MRI,5.0,40.0,1.0,5.0,30.0,15.0,5.0,15.0,30.0,30.0,60.0,RR,60.02131475831061,
3.0,0.0,resp1,stim/right_resp_img.png,"[-0.5, 0]",right,stim/silver_coin.png,gold,,,,,training,,,silver,val,,,,,0.0,0.0,0.0,0.0,0.0,0.0,0.0,0.0,,,,,,,,,0.0,training_resp,,17.380896315327846,11.364703908911906,0.0,,right,silver,0.0,259.0,2.0,right,2023_Nov_07_2051,habits_v_MRI,5.0,40.0,1.0,5.0,30.0,15.0,5.0,15.0,30.0,30.0,60.0,RR,60.02131475831061,
3.0,0.0,resp1,stim/right_resp_img.png,"[-0.5, 0]",right,stim/silver_coin.png,gold,,,,,training,,,silver,val,,,,,0.0,0.0,0.0,0.0,0.0,0.0,0.0,0.0,,,,,,,,,0.0,training_resp,,17.7141969029326,11.698023850796744,0.0,,right,silver,0.0,259.0,2.0,right,2023_Nov_07_2051,habits_v_MRI,5.0,40.0,1.0,5.0,30.0,15.0,5.0,15.0,30.0,30.0,60.0,RR,60.02131475831061,
3.0,0.0,resp1,stim/right_resp_img.png,"[-0.5, 0]",right,stim/silver_coin.png,gold,,,,,training,,,silver,val,,,,,0.0,0.0,0.0,0.0,0.0,0.0,0.0,0.0,,,,,,,,,0.0,training_resp,,18.04739720071666,12.031307136872783,0.0,,right,silver,0.0,259.0,2.0,right,2023_Nov_07_2051,habits_v_MRI,5.0,40.0,1.0,5.0,30.0,15.0,5.0,15.0,30.0,30.0,60.0,RR,60.02131475831061,
3.0,0.0,resp1,stim/right_resp_img.png,"[-0.5, 0]",right,stim/silver_coin.png,gold,,,,,training,,,silver,val,,,,,0.0,0.0,0.0,0.0,0.0,0.0,0.0,0.0,,,,,,,,,0.0,training_resp,,18.38089602207765,12.364618574618362,0.0,,right,silver,0.0,259.0,2.0,right,2023_Nov_07_2051,habits_v_MRI,5.0,40.0,1.0,5.0,30.0,15.0,5.0,15.0,30.0,30.0,60.0,RR,60.02131475831061,
3.0,0.0,resp1,stim/right_resp_img.png,"[-0.5, 0]",right,stim/silver_coin.png,gold,,,,,training,,,silver,val,,,,,0.0,0.0,0.0,0.0,0.0,0.0,0.0,0.0,,,,,,,,,0.0,training_resp,,18.73073299252428,12.714605979737826,0.0,,right,silver,0.0,259.0,2.0,right,2023_Nov_07_2051,habits_v_MRI,5.0,40.0,1.0,5.0,30.0,15.0,5.0,15.0,30.0,30.0,60.0,RR,60.02131475831061,
3.0,0.0,resp1,stim/right_resp_img.png,"[-0.5, 0]",right,stim/silver_coin.png,gold,,,,,training,,,silver,val,,,,,0.0,0.0,0.0,0.0,0.0,0.0,0.0,0.0,,,,,,,,,0.0,training_resp,,19.048027091193944,13.031239104107954,0.0,,right,silver,0.0,259.0,2.0,right,2023_Nov_07_2051,habits_v_MRI,5.0,40.0,1.0,5.0,30.0,15.0,5.0,15.0,30.0,30.0,60.0,RR,60.02131475831061,
3.0,0.0,resp1,stim/right_resp_img.png,"[-0.5, 0]",right,stim/silver_coin.png,gold,,,,,training,,,silver,val,,,,,0.0,0.0,0.0,0.0,0.0,0.0,0.0,0.0,,,,,,,,,0.0,training_resp,,19.397413637139834,13.381213899701834,0.0,,right,silver,0.0,259.0,2.0,right,2023_Nov_07_2051,habits_v_MRI,5.0,40.0,1.0,5.0,30.0,15.0,5.0,15.0,30.0,30.0,60.0,RR,60.02131475831061,
3.0,0.0,resp1,stim/right_resp_img.png,"[-0.5, 0]",right,stim/silver_coin.png,gold,,,,,training,,,silver,val,,,,,0.0,0.0,0.0,0.0,0.0,0.0,0.0,0.0,,,,,,,,,0.0,training_resp,,19.764152373652905,13.747918913024478,0.0,,right,silver,0.0,259.0,2.0,right,2023_Nov_07_2051,habits_v_MRI,5.0,40.0,1.0,5.0,30.0,15.0,5.0,15.0,30.0,30.0,60.0,RR,60.02131475831061,
3.0,0.0,resp1,stim/right_resp_img.png,"[-0.5, 0]",right,stim/silver_coin.png,gold,,,,,training,,,silver,val,,,,,0.0,0.0,0.0,0.0,0.0,0.0,0.0,0.0,,,,,,,,,0.0,training_resp,,20.064418024383485,14.04785876837559,0.0,,right,silver,0.0,259.0,2.0,right,2023_Nov_07_2051,habits_v_MRI,5.0,40.0,1.0,5.0,30.0,15.0,5.0,15.0,30.0,30.0,60.0,RR,60.02131475831061,
3.0,0.0,resp1,stim/right_resp_img.png,"[-0.5, 0]",right,stim/silver_coin.png,gold,,,,,training,,,silver,val,,,,,0.0,0.0,0.0,0.0,0.0,0.0,0.0,0.0,,,,,,,,,0.0,training_resp,,20.36399015050847,14.347805075231008,0.0,,right,silver,0.0,259.0,2.0,right,2023_Nov_07_2051,habits_v_MRI,5.0,40.0,1.0,5.0,30.0,15.0,5.0,15.0,30.0,30.0,60.0,RR,60.02131475831061,
3.0,0.0,resp1,stim/right_resp_img.png,"[-0.5, 0]",right,stim/silver_coin.png,gold,,,,,training,,,silver,val,,,,,0.0,0.0,0.0,0.0,0.0,0.0,0.0,0.0,,,,,,,,,0.0,training_resp,,20.69722886348609,14.681113287224434,0.0,,right,silver,0.0,259.0,2.0,right,2023_Nov_07_2051,habits_v_MRI,5.0,40.0,1.0,5.0,30.0,15.0,5.0,15.0,30.0,30.0,60.0,RR,60.02131475831061,
3.0,0.0,resp1,stim/right_resp_img.png,"[-0.5, 0]",right,stim/silver_coin.png,gold,,,,,training,,,silver,val,,,,,0.0,0.0,0.0,0.0,0.0,0.0,0.0,0.0,,,,,,,,,0.0,training_resp,,20.930773342959583,14.914486511726864,0.0,,right,silver,0.0,259.0,2.0,right,2023_Nov_07_2051,habits_v_MRI,5.0,40.0,1.0,5.0,30.0,15.0,5.0,15.0,30.0,30.0,60.0,RR,60.02131475831061,
3.0,0.0,resp1,stim/right_resp_img.png,"[-0.5, 0]",right,stim/silver_coin.png,gold,,,,,training,,,silver,val,,,,,0.0,0.0,0.0,0.0,0.0,0.0,0.0,0.0,,,,,,,,,0.0,training_resp,,21.19729088479653,15.181137479958124,0.0,,right,silver,0.0,259.0,2.0,right,2023_Nov_07_2051,habits_v_MRI,5.0,40.0,1.0,5.0,30.0,15.0,5.0,15.0,30.0,30.0,60.0,RR,60.02131475831061,
3.0,0.0,resp1,stim/right_resp_img.png,"[-0.5, 0]",right,stim/silver_coin.png,gold,,,,,training,,,silver,val,,,,,0.0,0.0,0.0,0.0,0.0,0.0,0.0,0.0,,,,,,,,,0.0,training_resp,,21.43064886052161,15.414504839573056,0.0,13.0,right,silver,1.0,259.0,2.0,right,2023_Nov_07_2051,habits_v_MRI,5.0,40.0,1.0,5.0,30.0,15.0,5.0,15.0,30.0,30.0,60.0,RR,60.02131475831061,
3.0,0.0,resp1,stim/right_resp_img.png,"[-0.5, 0]",right,stim/silver_coin.png,gold,,,,,training,,,silver,val,,,,,0.0,0.0,0.0,0.0,0.0,0.0,0.0,0.0,,,,,,,,,0.0,training_resp,,21.94722351175733,15.931028759339824,0.0,,right,silver,0.0,259.0,2.0,right,2023_Nov_07_2051,habits_v_MRI,5.0,40.0,1.0,5.0,30.0,15.0,5.0,15.0,30.0,30.0,60.0,RR,60.02131475831061,
3.0,0.0,resp1,stim/right_resp_img.png,"[-0.5, 0]",right,stim/silver_coin.png,gold,,,,,training,,,silver,val,,,,,0.0,0.0,0.0,0.0,0.0,0.0,0.0,0.0,,,,,,,,,0.0,training_resp,,22.26382819120772,16.24771290831268,0.0,,right,silver,0.0,259.0,2.0,right,2023_Nov_07_2051,habits_v_MRI,5.0,40.0,1.0,5.0,30.0,15.0,5.0,15.0,30.0,30.0,60.0,RR,60.02131475831061,
3.0,0.0,resp1,stim/right_resp_img.png,"[-0.5, 0]",right,stim/silver_coin.png,gold,,,,,training,,,silver,val,,,,,0.0,0.0,0.0,0.0,0.0,0.0,0.0,0.0,,,,,,,,,0.0,training_resp,,22.497203175211325,16.48102191206999,0.0,,right,silver,0.0,259.0,2.0,right,2023_Nov_07_2051,habits_v_MRI,5.0,40.0,1.0,5.0,30.0,15.0,5.0,15.0,30.0,30.0,60.0,RR,60.02131475831061,
3.0,0.0,resp1,stim/right_resp_img.png,"[-0.5, 0]",right,stim/silver_coin.png,gold,,,,,training,,,silver,val,,,,,0.0,0.0,0.0,0.0,0.0,0.0,0.0,0.0,,,,,,,,,0.0,training_resp,,22.71382389520295,16.697672543115914,0.0,,right,silver,0.0,259.0,2.0,right,2023_Nov_07_2051,habits_v_MRI,5.0,40.0,1.0,5.0,30.0,15.0,5.0,15.0,30.0,30.0,60.0,RR,60.02131475831061,
3.0,0.0,resp1,stim/right_resp_img.png,"[-0.5, 0]",right,stim/silver_coin.png,gold,,,,,training,,,silver,val,,,,,0.0,0.0,0.0,0.0,0.0,0.0,0.0,0.0,,,,,,,,,0.0,training_resp,,22.98045697552152,16.964302397798747,0.0,,right,silver,0.0,259.0,2.0,right,2023_Nov_07_2051,habits_v_MRI,5.0,40.0,1.0,5.0,30.0,15.0,5.0,15.0,30.0,30.0,60.0,RR,60.02131475831061,
3.0,0.0,resp1,stim/right_resp_img.png,"[-0.5, 0]",right,stim/silver_coin.png,gold,,,,,training,,,silver,val,,,,,0.0,0.0,0.0,0.0,0.0,0.0,0.0,0.0,,,,,,,,,0.0,training_resp,,23.230863046715967,17.214330769260414,0.0,,right,silver,0.0,259.0,2.0,right,2023_Nov_07_2051,habits_v_MRI,5.0,40.0,1.0,5.0,30.0,15.0,5.0,15.0,30.0,30.0,60.0,RR,60.02131475831061,
3.0,0.0,resp1,stim/right_resp_img.png,"[-0.5, 0]",right,stim/silver_coin.png,gold,,,,,training,,,silver,val,,,,,0.0,0.0,0.0,0.0,0.0,0.0,0.0,0.0,,,,,,,,,0.0,training_resp,,23.430383180384524,17.414284905768,0.0,,right,silver,0.0,259.0,2.0,right,2023_Nov_07_2051,habits_v_MRI,5.0,40.0,1.0,5.0,30.0,15.0,5.0,15.0,30.0,30.0,60.0,RR,60.02131475831061,
3.0,0.0,resp1,stim/right_resp_img.png,"[-0.5, 0]",right,stim/silver_coin.png,gold,,,,,training,,,silver,val,,,,,0.0,0.0,0.0,0.0,0.0,0.0,0.0,0.0,,,,,,,,,0.0,training_resp,,23.86377124302089,17.84763279382605,0.0,,right,silver,0.0,259.0,2.0,right,2023_Nov_07_2051,habits_v_MRI,5.0,40.0,1.0,5.0,30.0,15.0,5.0,15.0,30.0,30.0,60.0,RR,60.02131475831061,
3.0,0.0,resp1,stim/right_resp_img.png,"[-0.5, 0]",right,stim/silver_coin.png,gold,,,,,training,,,silver,val,,,,,0.0,0.0,0.0,0.0,0.0,0.0,0.0,0.0,,,,,,,,,0.0,training_resp,,24.36374558415264,18.34758719417732,0.0,,right,silver,0.0,259.0,2.0,right,2023_Nov_07_2051,habits_v_MRI,5.0,40.0,1.0,5.0,30.0,15.0,5.0,15.0,30.0,30.0,60.0,RR,60.02131475831061,
3.0,0.0,resp1,stim/right_resp_img.png,"[-0.5, 0]",right,stim/silver_coin.png,gold,,,,,training,,,silver,val,,,,,0.0,0.0,0.0,0.0,0.0,0.0,0.0,0.0,,,,,,,,,0.0,training_resp,,24.79700579191558,18.78081367874984,0.0,,right,silver,0.0,259.0,2.0,right,2023_Nov_07_2051,habits_v_MRI,5.0,40.0,1.0,5.0,30.0,15.0,5.0,15.0,30.0,30.0,60.0,RR,60.02131475831061,
3.0,0.0,resp1,stim/right_resp_img.png,"[-0.5, 0]",right,stim/silver_coin.png,gold,,,,,training,,,silver,val,,,,,0.0,0.0,0.0,0.0,0.0,0.0,0.0,0.0,,,,,,,,,0.0,training_resp,,25.28029947367031,19.26412788766902,0.0,,right,silver,0.0,259.0,2.0,right,2023_Nov_07_2051,habits_v_MRI,5.0,40.0,1.0,5.0,30.0,15.0,5.0,15.0,30.0,30.0,60.0,RR,60.02131475831061,
3.0,0.0,resp1,stim/right_resp_img.png,"[-0.5, 0]",right,stim/silver_coin.png,gold,,,,,training,,,silver,val,,,,,0.0,0.0,0.0,0.0,0.0,0.0,0.0,0.0,,,,,,,,,0.0,training_resp,,25.797026319080032,19.78078582044691,0.0,,right,silver,0.0,259.0,2.0,right,2023_Nov_07_2051,habits_v_MRI,5.0,40.0,1.0,5.0,30.0,15.0,5.0,15.0,30.0,30.0,60.0,RR,60.02131475831061,
3.0,0.0,resp1,stim/right_resp_img.png,"[-0.5, 0]",right,stim/silver_coin.png,gold,,,,,training,,,silver,val,,,,,0.0,0.0,0.0,0.0,0.0,0.0,0.0,0.0,,,,,,,,,0.0,training_resp,,26.313803602708504,20.29745108447969,0.0,8.0,right,silver,1.0,259.0,2.0,right,2023_Nov_07_2051,habits_v_MRI,5.0,40.0,1.0,5.0,30.0,15.0,5.0,15.0,30.0,30.0,60.0,RR,60.02131475831061,
3.0,0.0,resp1,stim/right_resp_img.png,"[-0.5, 0]",right,stim/silver_coin.png,gold,,,,,training,,,silver,val,,,,,0.0,0.0,0.0,0.0,0.0,0.0,0.0,0.0,,,,,,,,,0.0,training_resp,,26.98025727563072,20.964062816579823,0.0,,right,silver,0.0,259.0,2.0,right,2023_Nov_07_2051,habits_v_MRI,5.0,40.0,1.0,5.0,30.0,15.0,5.0,15.0,30.0,30.0,60.0,RR,60.02131475831061,
3.0,0.0,resp1,stim/right_resp_img.png,"[-0.5, 0]",right,stim/silver_coin.png,gold,,,,,training,,,silver,val,,,,,0.0,0.0,0.0,0.0,0.0,0.0,0.0,0.0,,,,,,,,,0.0,training_resp,,27.3301382327918,21.31402529589832,0.0,,right,silver,0.0,259.0,2.0,right,2023_Nov_07_2051,habits_v_MRI,5.0,40.0,1.0,5.0,30.0,15.0,5.0,15.0,30.0,30.0,60.0,RR,60.02131475831061,
3.0,0.0,resp1,stim/right_resp_img.png,"[-0.5, 0]",right,stim/silver_coin.png,gold,,,,,training,,,silver,val,,,,,0.0,0.0,0.0,0.0,0.0,0.0,0.0,0.0,,,,,,,,,0.0,training_resp,,27.61364111560397,21.59736601402983,0.0,,right,silver,0.0,259.0,2.0,right,2023_Nov_07_2051,habits_v_MRI,5.0,40.0,1.0,5.0,30.0,15.0,5.0,15.0,30.0,30.0,60.0,RR,60.02131475831061,
3.0,0.0,resp1,stim/right_resp_img.png,"[-0.5, 0]",right,stim/silver_coin.png,gold,,,,,training,,,silver,val,,,,,0.0,0.0,0.0,0.0,0.0,0.0,0.0,0.0,,,,,,,,,0.0,training_resp,,28.08011660596821,22.063896927866157,0.0,,right,silver,0.0,259.0,2.0,right,2023_Nov_07_2051,habits_v_MRI,5.0,40.0,1.0,5.0,30.0,15.0,5.0,15.0,30.0,30.0,60.0,RR,60.02131475831061,
3.0,0.0,resp1,stim/right_resp_img.png,"[-0.5, 0]",right,stim/silver_coin.png,gold,,,,,training,,,silver,val,,,,,0.0,0.0,0.0,0.0,0.0,0.0,0.0,0.0,,,,,,,,,0.0,training_resp,,28.630090404534712,22.613935240311548,0.0,,right,silver,0.0,259.0,2.0,right,2023_Nov_07_2051,habits_v_MRI,5.0,40.0,1.0,5.0,30.0,15.0,5.0,15.0,30.0,30.0,60.0,RR,60.02131475831061,
3.0,0.0,resp1,stim/right_resp_img.png,"[-0.5, 0]",right,stim/silver_coin.png,gold,,,,,training,,,silver,val,,,,,0.0,0.0,0.0,0.0,0.0,0.0,0.0,0.0,,,,,,,,,0.0,training_resp,,29.180053059826605,23.16387824807316,0.0,,right,silver,0.0,259.0,2.0,right,2023_Nov_07_2051,habits_v_MRI,5.0,40.0,1.0,5.0,30.0,15.0,5.0,15.0,30.0,30.0,60.0,RR,60.02131475831061,
3.0,0.0,resp1,stim/right_resp_img.png,"[-0.5, 0]",right,stim/silver_coin.png,gold,,,,,training,,,silver,val,,,,,0.0,0.0,0.0,0.0,0.0,0.0,0.0,0.0,,,,,,,,,0.0,training_resp,,29.513320217491128,23.49721226573456,0.0,,right,silver,0.0,259.0,2.0,right,2023_Nov_07_2051,habits_v_MRI,5.0,40.0,1.0,5.0,30.0,15.0,5.0,15.0,30.0,30.0,60.0,RR,60.02131475831061,
3.0,0.0,resp1,stim/right_resp_img.png,"[-0.5, 0]",right,stim/silver_coin.png,gold,,,,,training,,,silver,val,,,,,0.0,0.0,0.0,0.0,0.0,0.0,0.0,0.0,,,,,,,,,0.0,training_resp,,30.013310980284587,23.997153470059857,0.0,15.0,right,silver,1.0,259.0,2.0,right,2023_Nov_07_2051,habits_v_MRI,5.0,40.0,1.0,5.0,30.0,15.0,5.0,15.0,30.0,30.0,60.0,RR,60.02131475831061,
3.0,0.0,resp1,stim/right_resp_img.png,"[-0.5, 0]",right,stim/silver_coin.png,gold,,,,,training,,,silver,val,,,,,0.0,0.0,0.0,0.0,0.0,0.0,0.0,0.0,,,,,,,,,0.0,training_resp,,30.946746108704247,24.930516460211948,0.0,,right,silver,0.0,259.0,2.0,right,2023_Nov_07_2051,habits_v_MRI,5.0,40.0,1.0,5.0,30.0,15.0,5.0,15.0,30.0,30.0,60.0,RR,60.02131475831061,
3.0,0.0,resp1,stim/right_resp_img.png,"[-0.5, 0]",right,stim/silver_coin.png,gold,,,,,training,,,silver,val,,,,,0.0,0.0,0.0,0.0,0.0,0.0,0.0,0.0,,,,,,,,,0.0,training_resp,,31.246674527646974,25.23049267800525,0.0,,right,silver,0.0,259.0,2.0,right,2023_Nov_07_2051,habits_v_MRI,5.0,40.0,1.0,5.0,30.0,15.0,5.0,15.0,30.0,30.0,60.0,RR,60.02131475831061,
3.0,0.0,resp1,stim/right_resp_img.png,"[-0.5, 0]",right,stim/silver_coin.png,gold,,,,,training,,,silver,val,,,,,0.0,0.0,0.0,0.0,0.0,0.0,0.0,0.0,,,,,,,,,0.0,training_resp,,31.5299442805117,25.513737798435614,0.0,,right,silver,0.0,259.0,2.0,right,2023_Nov_07_2051,habits_v_MRI,5.0,40.0,1.0,5.0,30.0,15.0,5.0,15.0,30.0,30.0,60.0,RR,60.02131475831061,
3.0,0.0,resp1,stim/right_resp_img.png,"[-0.5, 0]",right,stim/silver_coin.png,gold,,,,,training,,,silver,val,,,,,0.0,0.0,0.0,0.0,0.0,0.0,0.0,0.0,,,,,,,,,0.0,training_resp,,31.81322517676745,25.797042740741745,0.0,,right,silver,0.0,259.0,2.0,right,2023_Nov_07_2051,habits_v_MRI,5.0,40.0,1.0,5.0,30.0,15.0,5.0,15.0,30.0,30.0,60.0,RR,60.02131475831061,
3.0,0.0,resp1,stim/right_resp_img.png,"[-0.5, 0]",right,stim/silver_coin.png,gold,,,,,training,,,silver,val,,,,,0.0,0.0,0.0,0.0,0.0,0.0,0.0,0.0,,,,,,,,,0.0,training_resp,,32.22997216810472,26.21375630213879,0.0,,right,silver,0.0,259.0,2.0,right,2023_Nov_07_2051,habits_v_MRI,5.0,40.0,1.0,5.0,30.0,15.0,5.0,15.0,30.0,30.0,60.0,RR,60.02131475831061,
3.0,0.0,resp1,stim/right_resp_img.png,"[-0.5, 0]",right,stim/silver_coin.png,gold,,,,,training,,,silver,val,,,,,0.0,0.0,0.0,0.0,0.0,0.0,0.0,0.0,,,,,,,,,0.0,training_resp,,32.579976581502706,26.563741654506885,0.0,,right,silver,0.0,259.0,2.0,right,2023_Nov_07_2051,habits_v_MRI,5.0,40.0,1.0,5.0,30.0,15.0,5.0,15.0,30.0,30.0,60.0,RR,60.02131475831061,
3.0,0.0,resp1,stim/right_resp_img.png,"[-0.5, 0]",right,stim/silver_coin.png,gold,,,,,training,,,silver,val,,,,,0.0,0.0,0.0,0.0,0.0,0.0,0.0,0.0,,,,,,,,,0.0,training_resp,,33.09667615510989,27.08032627613284,0.0,,right,silver,0.0,259.0,2.0,right,2023_Nov_07_2051,habits_v_MRI,5.0,40.0,1.0,5.0,30.0,15.0,5.0,15.0,30.0,30.0,60.0,RR,60.02131475831061,
3.0,0.0,resp1,stim/right_resp_img.png,"[-0.5, 0]",right,stim/silver_coin.png,gold,,,,,training,,,silver,val,,,,,0.0,0.0,0.0,0.0,0.0,0.0,0.0,0.0,,,,,,,,,0.0,training_resp,,33.479866233305074,27.463622509036213,0.0,,right,silver,0.0,259.0,2.0,right,2023_Nov_07_2051,habits_v_MRI,5.0,40.0,1.0,5.0,30.0,15.0,5.0,15.0,30.0,30.0,60.0,RR,60.02131475831061,
3.0,0.0,resp1,stim/right_resp_img.png,"[-0.5, 0]",right,stim/silver_coin.png,gold,,,,,training,,,silver,val,,,,,0.0,0.0,0.0,0.0,0.0,0.0,0.0,0.0,,,,,,,,,0.0,training_resp,,33.7798591661267,27.763604885083623,0.0,,right,silver,0.0,259.0,2.0,right,2023_Nov_07_2051,habits_v_MRI,5.0,40.0,1.0,5.0,30.0,15.0,5.0,15.0,30.0,30.0,60.0,RR,60.02131475831061,
3.0,0.0,resp1,stim/right_resp_img.png,"[-0.5, 0]",right,stim/silver_coin.png,gold,,,,,training,,,silver,val,,,,,0.0,0.0,0.0,0.0,0.0,0.0,0.0,0.0,,,,,,,,,0.0,training_resp,,34.213025242323056,28.19686714559793,0.0,,right,silver,0.0,259.0,2.0,right,2023_Nov_07_2051,habits_v_MRI,5.0,40.0,1.0,5.0,30.0,15.0,5.0,15.0,30.0,30.0,60.0,RR,60.02131475831061,
3.0,0.0,resp1,stim/right_resp_img.png,"[-0.5, 0]",right,stim/silver_coin.png,gold,,,,,training,,,silver,val,,,,,0.0,0.0,0.0,0.0,0.0,0.0,0.0,0.0,,,,,,,,,0.0,training_resp,,34.579789197887294,28.563585354946557,0.0,,right,silver,0.0,259.0,2.0,right,2023_Nov_07_2051,habits_v_MRI,5.0,40.0,1.0,5.0,30.0,15.0,5.0,15.0,30.0,30.0,60.0,RR,60.02131475831061,
3.0,0.0,resp1,stim/right_resp_img.png,"[-0.5, 0]",right,stim/silver_coin.png,gold,,,,,training,,,silver,val,,,,,0.0,0.0,0.0,0.0,0.0,0.0,0.0,0.0,,,,,,,,,0.0,training_resp,,34.979836175683886,28.963539667311125,0.0,,right,silver,0.0,259.0,2.0,right,2023_Nov_07_2051,habits_v_MRI,5.0,40.0,1.0,5.0,30.0,15.0,5.0,15.0,30.0,30.0,60.0,RR,60.02131475831061,
3.0,0.0,resp1,stim/right_resp_img.png,"[-0.5, 0]",right,stim/silver_coin.png,gold,,,,,training,,,silver,val,,,,,0.0,0.0,0.0,0.0,0.0,0.0,0.0,0.0,,,,,,,,,0.0,training_resp,,35.26302440650761,29.24684490286745,0.0,,right,silver,0.0,259.0,2.0,right,2023_Nov_07_2051,habits_v_MRI,5.0,40.0,1.0,5.0,30.0,15.0,5.0,15.0,30.0,30.0,60.0,RR,60.02131475831061,
3.0,0.0,resp1,stim/right_resp_img.png,"[-0.5, 0]",right,stim/silver_coin.png,gold,,,,,training,,,silver,val,,,,,0.0,0.0,0.0,0.0,0.0,0.0,0.0,0.0,,,,,,,,,0.0,training_resp,,35.779723686981015,29.763490812736563,0.0,,right,silver,0.0,259.0,2.0,right,2023_Nov_07_2051,habits_v_MRI,5.0,40.0,1.0,5.0,30.0,15.0,5.0,15.0,30.0,30.0,60.0,RR,60.02131475831061,
3.0,0.0,resp1,stim/right_resp_img.png,"[-0.5, 0]",right,stim/silver_coin.png,gold,,,,,training,,,silver,val,,,,,0.0,0.0,0.0,0.0,0.0,0.0,0.0,0.0,,,,,,,,,0.0,training_resp,,36.44617032201495,30.43006559589412,0.0,14.0,right,silver,1.0,259.0,2.0,right,2023_Nov_07_2051,habits_v_MRI,5.0,40.0,1.0,5.0,30.0,15.0,5.0,15.0,30.0,30.0,60.0,RR,60.02131475831061,
3.0,0.0,resp1,stim/right_resp_img.png,"[-0.5, 0]",right,stim/silver_coin.png,gold,,,,,training,,,silver,val,,,,,0.0,0.0,0.0,0.0,0.0,0.0,0.0,0.0,,,,,,,,,0.0,training_resp,,37.51292052445933,31.496682078577575,0.0,,right,silver,0.0,259.0,2.0,right,2023_Nov_07_2051,habits_v_MRI,5.0,40.0,1.0,5.0,30.0,15.0,5.0,15.0,30.0,30.0,60.0,RR,60.02131475831061,
3.0,0.0,resp1,stim/right_resp_img.png,"[-0.5, 0]",right,stim/silver_coin.png,gold,,,,,training,,,silver,val,,,,,0.0,0.0,0.0,0.0,0.0,0.0,0.0,0.0,,,,,,,,,0.0,training_resp,,37.81287680158857,31.796640408458188,0.0,,right,silver,0.0,259.0,2.0,right,2023_Nov_07_2051,habits_v_MRI,5.0,40.0,1.0,5.0,30.0,15.0,5.0,15.0,30.0,30.0,60.0,RR,60.02131475831061,
3.0,0.0,resp1,stim/right_resp_img.png,"[-0.5, 0]",right,stim/silver_coin.png,gold,,,,,training,,,silver,val,,,,,0.0,0.0,0.0,0.0,0.0,0.0,0.0,0.0,,,,,,,,,0.0,training_resp,,38.1794774197042,32.1632595009869,0.0,,right,silver,0.0,259.0,2.0,right,2023_Nov_07_2051,habits_v_MRI,5.0,40.0,1.0,5.0,30.0,15.0,5.0,15.0,30.0,30.0,60.0,RR,60.02131475831061,
3.0,0.0,resp1,stim/right_resp_img.png,"[-0.5, 0]",right,stim/silver_coin.png,gold,,,,,training,,,silver,val,,,,,0.0,0.0,0.0,0.0,0.0,0.0,0.0,0.0,,,,,,,,,0.0,training_resp,,38.47949439857621,32.46325331355911,0.0,,right,silver,0.0,259.0,2.0,right,2023_Nov_07_2051,habits_v_MRI,5.0,40.0,1.0,5.0,30.0,15.0,5.0,15.0,30.0,30.0,60.0,RR,60.02131475831061,
3.0,0.0,resp1,stim/right_resp_img.png,"[-0.5, 0]",right,stim/silver_coin.png,gold,,,,,training,,,silver,val,,,,,0.0,0.0,0.0,0.0,0.0,0.0,0.0,0.0,,,,,,,,,0.0,training_resp,,38.79601051809732,32.779877933789976,0.0,,right,silver,0.0,259.0,2.0,right,2023_Nov_07_2051,habits_v_MRI,5.0,40.0,1.0,5.0,30.0,15.0,5.0,15.0,30.0,30.0,60.0,RR,60.02131475831061,
3.0,0.0,resp1,stim/right_resp_img.png,"[-0.5, 0]",right,stim/silver_coin.png,gold,,,,,training,,,silver,val,,,,,0.0,0.0,0.0,0.0,0.0,0.0,0.0,0.0,,,,,,,,,0.0,training_resp,,39.09605447563808,33.07994417776354,0.0,,right,silver,0.0,259.0,2.0,right,2023_Nov_07_2051,habits_v_MRI,5.0,40.0,1.0,5.0,30.0,15.0,5.0,15.0,30.0,30.0,60.0,RR,60.02131475831061,
3.0,0.0,resp1,stim/right_resp_img.png,"[-0.5, 0]",right,stim/silver_coin.png,gold,,,,,training,,,silver,val,,,,,0.0,0.0,0.0,0.0,0.0,0.0,0.0,0.0,,,,,,,,,0.0,training_resp,,39.36268227745313,33.34652564697899,0.0,,right,silver,0.0,259.0,2.0,right,2023_Nov_07_2051,habits_v_MRI,5.0,40.0,1.0,5.0,30.0,15.0,5.0,15.0,30.0,30.0,60.0,RR,60.02131475831061,
3.0,0.0,resp1,stim/right_resp_img.png,"[-0.5, 0]",right,stim/silver_coin.png,gold,,,,,training,,,silver,val,,,,,0.0,0.0,0.0,0.0,0.0,0.0,0.0,0.0,,,,,,,,,0.0,training_resp,,39.64599543064833,33.62983616103884,0.0,,right,silver,0.0,259.0,2.0,right,2023_Nov_07_2051,habits_v_MRI,5.0,40.0,1.0,5.0,30.0,15.0,5.0,15.0,30.0,30.0,60.0,RR,60.02131475831061,
3.0,0.0,resp1,stim/right_resp_img.png,"[-0.5, 0]",right,stim/silver_coin.png,gold,,,,,training,,,silver,val,,,,,0.0,0.0,0.0,0.0,0.0,0.0,0.0,0.0,,,,,,,,,0.0,training_resp,,39.912776893004775,33.89652173221111,0.0,,right,silver,0.0,259.0,2.0,right,2023_Nov_07_2051,habits_v_MRI,5.0,40.0,1.0,5.0,30.0,15.0,5.0,15.0,30.0,30.0,60.0,RR,60.02131475831061,
3.0,0.0,resp1,stim/right_resp_img.png,"[-0.5, 0]",right,stim/silver_coin.png,gold,,,,,training,,,silver,val,,,,,0.0,0.0,0.0,0.0,0.0,0.0,0.0,0.0,,,,,,,,,0.0,training_resp,,40.21257129893638,34.196460707928054,0.0,,right,silver,0.0,259.0,2.0,right,2023_Nov_07_2051,habits_v_MRI,5.0,40.0,1.0,5.0,30.0,15.0,5.0,15.0,30.0,30.0,60.0,RR,60.02131475831061,
3.0,0.0,resp1,stim/right_resp_img.png,"[-0.5, 0]",right,stim/silver_coin.png,gold,,,,,training,,,silver,val,,,,,0.0,0.0,0.0,0.0,0.0,0.0,0.0,0.0,,,,,,,,,0.0,training_resp,,40.695957939256914,34.6797881127568,0.0,,right,silver,0.0,259.0,2.0,right,2023_Nov_07_2051,habits_v_MRI,5.0,40.0,1.0,5.0,30.0,15.0,5.0,15.0,30.0,30.0,60.0,RR,60.02131475831061,
3.0,0.0,resp1,stim/right_resp_img.png,"[-0.5, 0]",right,stim/silver_coin.png,gold,,,,,training,,,silver,val,,,,,0.0,0.0,0.0,0.0,0.0,0.0,0.0,0.0,,,,,,,,,0.0,training_resp,,41.24597543140408,35.229780385736376,0.0,,right,silver,0.0,259.0,2.0,right,2023_Nov_07_2051,habits_v_MRI,5.0,40.0,1.0,5.0,30.0,15.0,5.0,15.0,30.0,30.0,60.0,RR,60.02131475831061,
3.0,0.0,resp1,stim/right_resp_img.png,"[-0.5, 0]",right,stim/silver_coin.png,gold,,,,,training,,,silver,val,,,,,0.0,0.0,0.0,0.0,0.0,0.0,0.0,0.0,,,,,,,,,0.0,training_resp,,41.74597117933445,35.72972276317887,0.0,,right,silver,0.0,259.0,2.0,right,2023_Nov_07_2051,habits_v_MRI,5.0,40.0,1.0,5.0,30.0,15.0,5.0,15.0,30.0,30.0,60.0,RR,60.02131475831061,
3.0,0.0,resp1,stim/right_resp_img.png,"[-0.5, 0]",right,stim/silver_coin.png,gold,,,,,training,,,silver,val,,,,,0.0,0.0,0.0,0.0,0.0,0.0,0.0,0.0,,,,,,,,,0.0,training_resp,,42.07910344423726,36.06297936395276,0.0,22.0,right,silver,1.0,259.0,2.0,right,2023_Nov_07_2051,habits_v_MRI,5.0,40.0,1.0,5.0,30.0,15.0,5.0,15.0,30.0,30.0,60.0,RR,60.02131475831061,
3.0,0.0,resp1,stim/right_resp_img.png,"[-0.5, 0]",right,stim/silver_coin.png,gold,,,,,training,,,silver,val,,,,,0.0,0.0,0.0,0.0,0.0,0.0,0.0,0.0,,,,,,,,,0.0,training_resp,,42.97919103654567,36.96296256105416,0.0,,right,silver,0.0,259.0,2.0,right,2023_Nov_07_2051,habits_v_MRI,5.0,40.0,1.0,5.0,30.0,15.0,5.0,15.0,30.0,30.0,60.0,RR,60.02131475831061,
3.0,0.0,resp1,stim/right_resp_img.png,"[-0.5, 0]",right,stim/silver_coin.png,gold,,,,,training,,,silver,val,,,,,0.0,0.0,0.0,0.0,0.0,0.0,0.0,0.0,,,,,,,,,0.0,training_resp,,43.37904124695342,37.36292831005994,0.0,,right,silver,0.0,259.0,2.0,right,2023_Nov_07_2051,habits_v_MRI,5.0,40.0,1.0,5.0,30.0,15.0,5.0,15.0,30.0,30.0,60.0,RR,60.02131475831061,
3.0,0.0,resp1,stim/right_resp_img.png,"[-0.5, 0]",right,stim/silver_coin.png,gold,,,,,training,,,silver,val,,,,,0.0,0.0,0.0,0.0,0.0,0.0,0.0,0.0,,,,,,,,,0.0,training_resp,,43.66263855469879,37.646282517467625,0.0,,right,silver,0.0,259.0,2.0,right,2023_Nov_07_2051,habits_v_MRI,5.0,40.0,1.0,5.0,30.0,15.0,5.0,15.0,30.0,30.0,60.0,RR,60.02131475831061,
3.0,0.0,resp1,stim/right_resp_img.png,"[-0.5, 0]",right,stim/silver_coin.png,gold,,,,,training,,,silver,val,,,,,0.0,0.0,0.0,0.0,0.0,0.0,0.0,0.0,,,,,,,,,0.0,training_resp,,43.94578338519205,37.92956575972494,0.0,,right,silver,0.0,259.0,2.0,right,2023_Nov_07_2051,habits_v_MRI,5.0,40.0,1.0,5.0,30.0,15.0,5.0,15.0,30.0,30.0,60.0,RR,60.02131475831061,
3.0,0.0,resp1,stim/right_resp_img.png,"[-0.5, 0]",right,stim/silver_coin.png,gold,,,,,training,,,silver,val,,,,,0.0,0.0,0.0,0.0,0.0,0.0,0.0,0.0,,,,,,,,,0.0,training_resp,,44.37900605762843,38.362868194817565,0.0,,right,silver,0.0,259.0,2.0,right,2023_Nov_07_2051,habits_v_MRI,5.0,40.0,1.0,5.0,30.0,15.0,5.0,15.0,30.0,30.0,60.0,RR,60.02131475831061,
3.0,0.0,resp1,stim/right_resp_img.png,"[-0.5, 0]",right,stim/silver_coin.png,gold,,,,,training,,,silver,val,,,,,0.0,0.0,0.0,0.0,0.0,0.0,0.0,0.0,,,,,,,,,0.0,training_resp,,44.72897381533403,38.71277437102981,0.0,,right,silver,0.0,259.0,2.0,right,2023_Nov_07_2051,habits_v_MRI,5.0,40.0,1.0,5.0,30.0,15.0,5.0,15.0,30.0,30.0,60.0,RR,60.02131475831061,
3.0,0.0,resp1,stim/right_resp_img.png,"[-0.5, 0]",right,stim/silver_coin.png,gold,,,,,training,,,silver,val,,,,,0.0,0.0,0.0,0.0,0.0,0.0,0.0,0.0,,,,,,,,,0.0,training_resp,,45.02895912376698,39.0128397353692,0.0,,right,silver,0.0,259.0,2.0,right,2023_Nov_07_2051,habits_v_MRI,5.0,40.0,1.0,5.0,30.0,15.0,5.0,15.0,30.0,30.0,60.0,RR,60.02131475831061,
3.0,0.0,resp1,stim/right_resp_img.png,"[-0.5, 0]",right,stim/silver_coin.png,gold,,,,,training,,,silver,val,,,,,0.0,0.0,0.0,0.0,0.0,0.0,0.0,0.0,,,,,,,,,0.0,training_resp,,45.52888918481767,39.512777127558365,0.0,,right,silver,0.0,259.0,2.0,right,2023_Nov_07_2051,habits_v_MRI,5.0,40.0,1.0,5.0,30.0,15.0,5.0,15.0,30.0,30.0,60.0,RR,60.02131475831061,
3.0,0.0,resp1,stim/right_resp_img.png,"[-0.5, 0]",right,stim/silver_coin.png,gold,,,,,training,,,silver,val,,,,,0.0,0.0,0.0,0.0,0.0,0.0,0.0,0.0,,,,,,,,,0.0,training_resp,,45.978926822775975,39.96273734886199,0.0,,right,silver,0.0,259.0,2.0,right,2023_Nov_07_2051,habits_v_MRI,5.0,40.0,1.0,5.0,30.0,15.0,5.0,15.0,30.0,30.0,60.0,RR,60.02131475831061,
3.0,0.0,resp1,stim/right_resp_img.png,"[-0.5, 0]",right,stim/silver_coin.png,gold,,,,,training,,,silver,val,,,,,0.0,0.0,0.0,0.0,0.0,0.0,0.0,0.0,,,,,,,,,0.0,training_resp,,46.27888016751968,40.26269098673947,0.0,,right,silver,0.0,259.0,2.0,right,2023_Nov_07_2051,habits_v_MRI,5.0,40.0,1.0,5.0,30.0,15.0,5.0,15.0,30.0,30.0,60.0,RR,60.02131475831061,
3.0,0.0,resp1,stim/right_resp_img.png,"[-0.5, 0]",right,stim/silver_coin.png,gold,,,,,training,,,silver,val,,,,,0.0,0.0,0.0,0.0,0.0,0.0,0.0,0.0,,,,,,,,,0.0,training_resp,,46.612282804446295,40.59606635186356,0.0,,right,silver,0.0,259.0,2.0,right,2023_Nov_07_2051,habits_v_MRI,5.0,40.0,1.0,5.0,30.0,15.0,5.0,15.0,30.0,30.0,60.0,RR,60.02131475831061,
3.0,0.0,resp1,stim/right_resp_img.png,"[-0.5, 0]",right,stim/silver_coin.png,gold,,,,,training,,,silver,val,,,,,0.0,0.0,0.0,0.0,0.0,0.0,0.0,0.0,,,,,,,,,0.0,training_resp,,46.87888274807483,40.862733741872944,0.0,,right,silver,0.0,259.0,2.0,right,2023_Nov_07_2051,habits_v_MRI,5.0,40.0,1.0,5.0,30.0,15.0,5.0,15.0,30.0,30.0,60.0,RR,60.02131475831061,
3.0,0.0,resp1,stim/right_resp_img.png,"[-0.5, 0]",right,stim/silver_coin.png,gold,,,,,training,,,silver,val,,,,,0.0,0.0,0.0,0.0,0.0,0.0,0.0,0.0,,,,,,,,,0.0,training_resp,,47.1788428373402,41.1626601080643,0.0,,right,silver,0.0,259.0,2.0,right,2023_Nov_07_2051,habits_v_MRI,5.0,40.0,1.0,5.0,30.0,15.0,5.0,15.0,30.0,30.0,60.0,RR,60.02131475831061,
3.0,0.0,resp1,stim/right_resp_img.png,"[-0.5, 0]",right,stim/silver_coin.png,gold,,,,,training,,,silver,val,,,,,0.0,0.0,0.0,0.0,0.0,0.0,0.0,0.0,,,,,,,,,0.0,training_resp,,47.46207446849439,41.44597443426028,0.0,,right,silver,0.0,259.0,2.0,right,2023_Nov_07_2051,habits_v_MRI,5.0,40.0,1.0,5.0,30.0,15.0,5.0,15.0,30.0,30.0,60.0,RR,60.02131475831061,
3.0,0.0,resp1,stim/right_resp_img.png,"[-0.5, 0]",right,stim/silver_coin.png,gold,,,,,training,,,silver,val,,,,,0.0,0.0,0.0,0.0,0.0,0.0,0.0,0.0,,,,,,,,,0.0,training_resp,,47.76211168128066,41.74594244116452,0.0,,right,silver,0.0,259.0,2.0,right,2023_Nov_07_2051,habits_v_MRI,5.0,40.0,1.0,5.0,30.0,15.0,5.0,15.0,30.0,30.0,60.0,RR,60.02131475831061,
3.0,0.0,resp1,stim/right_resp_img.png,"[-0.5, 0]",right,stim/silver_coin.png,gold,,,,,training,,,silver,val,,,,,0.0,0.0,0.0,0.0,0.0,0.0,0.0,0.0,,,,,,,,,0.0,training_resp,,48.07884538860526,42.062664418830536,0.0,,right,silver,0.0,259.0,2.0,right,2023_Nov_07_2051,habits_v_MRI,5.0,40.0,1.0,5.0,30.0,15.0,5.0,15.0,30.0,30.0,60.0,RR,60.02131475831061,
3.0,0.0,resp1,stim/right_resp_img.png,"[-0.5, 0]",right,stim/silver_coin.png,gold,,,,,training,,,silver,val,,,,,0.0,0.0,0.0,0.0,0.0,0.0,0.0,0.0,,,,,,,,,0.0,training_resp,,48.42882340995129,42.41266120772343,0.0,,right,silver,0.0,259.0,2.0,right,2023_Nov_07_2051,habits_v_MRI,5.0,40.0,1.0,5.0,30.0,15.0,5.0,15.0,30.0,30.0,60.0,RR,60.02131475831061,
3.0,0.0,resp1,stim/right_resp_img.png,"[-0.5, 0]",right,stim/silver_coin.png,gold,,,,,training,,,silver,val,,,,,0.0,0.0,0.0,0.0,0.0,0.0,0.0,0.0,,,,,,,,,0.0,training_resp,,48.8456627734704,42.82926069688983,0.0,,right,silver,0.0,259.0,2.0,right,2023_Nov_07_2051,habits_v_MRI,5.0,40.0,1.0,5.0,30.0,15.0,5.0,15.0,30.0,30.0,60.0,RR,60.02131475831061,
3.0,0.0,resp1,stim/right_resp_img.png,"[-0.5, 0]",right,stim/silver_coin.png,gold,,,,,training,,,silver,val,,,,,0.0,0.0,0.0,0.0,0.0,0.0,0.0,0.0,,,,,,,,,0.0,training_resp,,49.09544100693893,43.07924038963392,0.0,,right,silver,0.0,259.0,2.0,right,2023_Nov_07_2051,habits_v_MRI,5.0,40.0,1.0,5.0,30.0,15.0,5.0,15.0,30.0,30.0,60.0,RR,60.02131475831061,
3.0,0.0,resp1,stim/right_resp_img.png,"[-0.5, 0]",right,stim/silver_coin.png,gold,,,,,training,,,silver,val,,,,,0.0,0.0,0.0,0.0,0.0,0.0,0.0,0.0,,,,,,,,,0.0,training_resp,,49.32869165483862,43.31252564059105,0.0,,right,silver,0.0,259.0,2.0,right,2023_Nov_07_2051,habits_v_MRI,5.0,40.0,1.0,5.0,30.0,15.0,5.0,15.0,30.0,30.0,60.0,RR,60.02131475831061,
3.0,0.0,resp1,stim/right_resp_img.png,"[-0.5, 0]",right,stim/silver_coin.png,gold,,,,,training,,,silver,val,,,,,0.0,0.0,0.0,0.0,0.0,0.0,0.0,0.0,,,,,,,,,0.0,training_resp,,49.54541207826696,43.52922201785259,0.0,,right,silver,0.0,259.0,2.0,right,2023_Nov_07_2051,habits_v_MRI,5.0,40.0,1.0,5.0,30.0,15.0,5.0,15.0,30.0,30.0,60.0,RR,60.02131475831061,
3.0,0.0,resp1,stim/right_resp_img.png,"[-0.5, 0]",right,stim/silver_coin.png,gold,,,,,training,,,silver,val,,,,,0.0,0.0,0.0,0.0,0.0,0.0,0.0,0.0,,,,,,,,,0.0,training_resp,,49.81190381443594,43.79577562876512,0.0,20.0,right,silver,1.0,259.0,2.0,right,2023_Nov_07_2051,habits_v_MRI,5.0,40.0,1.0,5.0,30.0,15.0,5.0,15.0,30.0,30.0,60.0,RR,60.02131475831061,
3.0,0.0,resp1,stim/right_resp_img.png,"[-0.5, 0]",right,stim/silver_coin.png,gold,,,,,training,,,silver,val,,,,,0.0,0.0,0.0,0.0,0.0,0.0,0.0,0.0,,,,,,,,,0.0,training_resp,,50.6119004128268,44.59577545279171,0.0,,right,silver,0.0,259.0,2.0,right,2023_Nov_07_2051,habits_v_MRI,5.0,40.0,1.0,5.0,30.0,15.0,5.0,15.0,30.0,30.0,60.0,RR,60.02131475831061,
3.0,0.0,resp1,stim/right_resp_img.png,"[-0.5, 0]",right,stim/silver_coin.png,gold,,,,,training,,,silver,val,,,,,0.0,0.0,0.0,0.0,0.0,0.0,0.0,0.0,,,,,,,,,0.0,ITI_start,23.333333333333336,50.76275066228118,44.74577235907782,,,,,,259.0,2.0,right,2023_Nov_07_2051,habits_v_MRI,5.0,40.0,1.0,5.0,30.0,15.0,5.0,15.0,30.0,30.0,60.0,RR,60.02131475831061,
3.0,1.0,resp2,stim/left_resp_img.png,"[0.5, 0]",left,stim/gold_coin.png,gold,,,,,training,,,gold,deval,,,,,0.0,0.0,0.0,0.0,0.0,1.0,1.0,1.0,,,,,,,,,0.0,training_period_start,30.0,74.1311899269931,0.0,1.0,16.0,,,,259.0,2.0,right,2023_Nov_07_2051,habits_v_MRI,5.0,40.0,1.0,5.0,30.0,15.0,5.0,15.0,30.0,30.0,60.0,RR,60.02131475831061,
3.0,1.0,resp2,stim/left_resp_img.png,"[0.5, 0]",left,stim/gold_coin.png,gold,,,,,training,,,gold,deval,,,,,0.0,0.0,0.0,0.0,0.0,1.0,1.0,1.0,,,,,,,,,0.0,training_resp,,75.36038118344732,1.248168317950331,1.0,,left,gold,0.0,259.0,2.0,right,2023_Nov_07_2051,habits_v_MRI,5.0,40.0,1.0,5.0,30.0,15.0,5.0,15.0,30.0,30.0,60.0,RR,60.02131475831061,
3.0,1.0,resp2,stim/left_resp_img.png,"[0.5, 0]",left,stim/gold_coin.png,gold,,,,,training,,,gold,deval,,,,,0.0,0.0,0.0,0.0,0.0,1.0,1.0,1.0,,,,,,,,,0.0,training_resp,,75.61024035245646,1.498152116080746,1.0,,left,gold,0.0,259.0,2.0,right,2023_Nov_07_2051,habits_v_MRI,5.0,40.0,1.0,5.0,30.0,15.0,5.0,15.0,30.0,30.0,60.0,RR,60.02131475831061,
3.0,1.0,resp2,stim/left_resp_img.png,"[0.5, 0]",left,stim/gold_coin.png,gold,,,,,training,,,gold,deval,,,,,0.0,0.0,0.0,0.0,0.0,1.0,1.0,1.0,,,,,,,,,0.0,training_resp,,75.84351123438682,1.7314479239284992,1.0,,left,gold,0.0,259.0,2.0,right,2023_Nov_07_2051,habits_v_MRI,5.0,40.0,1.0,5.0,30.0,15.0,5.0,15.0,30.0,30.0,60.0,RR,60.02131475831061,
3.0,1.0,resp2,stim/left_resp_img.png,"[0.5, 0]",left,stim/gold_coin.png,gold,,,,,training,,,gold,deval,,,,,0.0,0.0,0.0,0.0,0.0,1.0,1.0,1.0,,,,,,,,,0.0,training_resp,,76.0601712493226,1.948120255023241,1.0,,left,gold,0.0,259.0,2.0,right,2023_Nov_07_2051,habits_v_MRI,5.0,40.0,1.0,5.0,30.0,15.0,5.0,15.0,30.0,30.0,60.0,RR,60.02131475831061,
3.0,1.0,resp2,stim/left_resp_img.png,"[0.5, 0]",left,stim/gold_coin.png,gold,,,,,training,,,gold,deval,,,,,0.0,0.0,0.0,0.0,0.0,1.0,1.0,1.0,,,,,,,,,0.0,training_resp,,76.27684094128199,2.1647697131847963,1.0,,left,gold,0.0,259.0,2.0,right,2023_Nov_07_2051,habits_v_MRI,5.0,40.0,1.0,5.0,30.0,15.0,5.0,15.0,30.0,30.0,60.0,RR,60.02131475831061,
3.0,1.0,resp2,stim/left_resp_img.png,"[0.5, 0]",left,stim/gold_coin.png,gold,,,,,training,,,gold,deval,,,,,0.0,0.0,0.0,0.0,0.0,1.0,1.0,1.0,,,,,,,,,0.0,training_resp,,76.4768634038046,2.364777806680649,1.0,,left,gold,0.0,259.0,2.0,right,2023_Nov_07_2051,habits_v_MRI,5.0,40.0,1.0,5.0,30.0,15.0,5.0,15.0,30.0,30.0,60.0,RR,60.02131475831061,
3.0,1.0,resp2,stim/left_resp_img.png,"[0.5, 0]",left,stim/gold_coin.png,gold,,,,,training,,,gold,deval,,,,,0.0,0.0,0.0,0.0,0.0,1.0,1.0,1.0,,,,,,,,,0.0,training_resp,,76.6768937840825,2.564769185264595,1.0,,left,gold,0.0,259.0,2.0,right,2023_Nov_07_2051,habits_v_MRI,5.0,40.0,1.0,5.0,30.0,15.0,5.0,15.0,30.0,30.0,60.0,RR,60.02131475831061,
3.0,1.0,resp2,stim/left_resp_img.png,"[0.5, 0]",left,stim/gold_coin.png,gold,,,,,training,,,gold,deval,,,,,0.0,0.0,0.0,0.0,0.0,1.0,1.0,1.0,,,,,,,,,0.0,training_resp,,77.24348167527933,3.131368806352839,1.0,,left,gold,0.0,259.0,2.0,right,2023_Nov_07_2051,habits_v_MRI,5.0,40.0,1.0,5.0,30.0,15.0,5.0,15.0,30.0,30.0,60.0,RR,60.02131475831061,
3.0,1.0,resp2,stim/left_resp_img.png,"[0.5, 0]",left,stim/gold_coin.png,gold,,,,,training,,,gold,deval,,,,,0.0,0.0,0.0,0.0,0.0,1.0,1.0,1.0,,,,,,,,,0.0,training_resp,,77.61007437575608,3.4980263139586896,1.0,,left,gold,0.0,259.0,2.0,right,2023_Nov_07_2051,habits_v_MRI,5.0,40.0,1.0,5.0,30.0,15.0,5.0,15.0,30.0,30.0,60.0,RR,60.02131475831061,
3.0,1.0,resp2,stim/left_resp_img.png,"[0.5, 0]",left,stim/gold_coin.png,gold,,,,,training,,,gold,deval,,,,,0.0,0.0,0.0,0.0,0.0,1.0,1.0,1.0,,,,,,,,,0.0,training_resp,,77.87677226332016,3.764664086280391,1.0,,left,gold,0.0,259.0,2.0,right,2023_Nov_07_2051,habits_v_MRI,5.0,40.0,1.0,5.0,30.0,15.0,5.0,15.0,30.0,30.0,60.0,RR,60.02131475831061,
3.0,1.0,resp2,stim/left_resp_img.png,"[0.5, 0]",left,stim/gold_coin.png,gold,,,,,training,,,gold,deval,,,,,0.0,0.0,0.0,0.0,0.0,1.0,1.0,1.0,,,,,,,,,0.0,training_resp,,78.12673377490137,4.014626770862378,1.0,,left,gold,0.0,259.0,2.0,right,2023_Nov_07_2051,habits_v_MRI,5.0,40.0,1.0,5.0,30.0,15.0,5.0,15.0,30.0,30.0,60.0,RR,60.02131475831061,
3.0,1.0,resp2,stim/left_resp_img.png,"[0.5, 0]",left,stim/gold_coin.png,gold,,,,,training,,,gold,deval,,,,,0.0,0.0,0.0,0.0,0.0,1.0,1.0,1.0,,,,,,,,,0.0,training_resp,,78.57666467165109,4.464552095974796,1.0,,left,gold,0.0,259.0,2.0,right,2023_Nov_07_2051,habits_v_MRI,5.0,40.0,1.0,5.0,30.0,15.0,5.0,15.0,30.0,30.0,60.0,RR,60.02131475831061,
3.0,1.0,resp2,stim/left_resp_img.png,"[0.5, 0]",left,stim/gold_coin.png,gold,,,,,training,,,gold,deval,,,,,0.0,0.0,0.0,0.0,0.0,1.0,1.0,1.0,,,,,,,,,0.0,training_resp,,79.07665308844298,4.964539633016102,1.0,,left,gold,0.0,259.0,2.0,right,2023_Nov_07_2051,habits_v_MRI,5.0,40.0,1.0,5.0,30.0,15.0,5.0,15.0,30.0,30.0,60.0,RR,60.02131475831061,
3.0,1.0,resp2,stim/left_resp_img.png,"[0.5, 0]",left,stim/gold_coin.png,gold,,,,,training,,,gold,deval,,,,,0.0,0.0,0.0,0.0,0.0,1.0,1.0,1.0,,,,,,,,,0.0,training_resp,,79.37666068354156,5.264548401115462,1.0,,left,gold,0.0,259.0,2.0,right,2023_Nov_07_2051,habits_v_MRI,5.0,40.0,1.0,5.0,30.0,15.0,5.0,15.0,30.0,30.0,60.0,RR,60.02131475831061,
3.0,1.0,resp2,stim/left_resp_img.png,"[0.5, 0]",left,stim/gold_coin.png,gold,,,,,training,,,gold,deval,,,,,0.0,0.0,0.0,0.0,0.0,1.0,1.0,1.0,,,,,,,,,0.0,training_resp,,79.7933455070015,5.681193343130872,1.0,,left,gold,0.0,259.0,2.0,right,2023_Nov_07_2051,habits_v_MRI,5.0,40.0,1.0,5.0,30.0,15.0,5.0,15.0,30.0,30.0,60.0,RR,60.02131475831061,
3.0,1.0,resp2,stim/left_resp_img.png,"[0.5, 0]",left,stim/gold_coin.png,gold,,,,,training,,,gold,deval,,,,,0.0,0.0,0.0,0.0,0.0,1.0,1.0,1.0,,,,,,,,,0.0,training_resp,,80.11005722091068,5.997866642079316,1.0,14.0,left,gold,1.0,259.0,2.0,right,2023_Nov_07_2051,habits_v_MRI,5.0,40.0,1.0,5.0,30.0,15.0,5.0,15.0,30.0,30.0,60.0,RR,60.02131475831061,
3.0,1.0,resp2,stim/left_resp_img.png,"[0.5, 0]",left,stim/gold_coin.png,gold,,,,,training,,,gold,deval,,,,,0.0,0.0,0.0,0.0,0.0,1.0,1.0,1.0,,,,,,,,,0.0,training_resp,,80.76005720626563,6.647817068966106,1.0,,left,gold,0.0,259.0,2.0,right,2023_Nov_07_2051,habits_v_MRI,5.0,40.0,1.0,5.0,30.0,15.0,5.0,15.0,30.0,30.0,60.0,RR,60.02131475831061,
3.0,1.0,resp2,stim/left_resp_img.png,"[0.5, 0]",left,stim/gold_coin.png,gold,,,,,training,,,gold,deval,,,,,0.0,0.0,0.0,0.0,0.0,1.0,1.0,1.0,,,,,,,,,0.0,training_resp,,81.15993762097787,7.047811556025408,1.0,,left,gold,0.0,259.0,2.0,right,2023_Nov_07_2051,habits_v_MRI,5.0,40.0,1.0,5.0,30.0,15.0,5.0,15.0,30.0,30.0,60.0,RR,60.02131475831061,
3.0,1.0,resp2,stim/left_resp_img.png,"[0.5, 0]",left,stim/gold_coin.png,gold,,,,,training,,,gold,deval,,,,,0.0,0.0,0.0,0.0,0.0,1.0,1.0,1.0,,,,,,,,,0.0,training_resp,,81.45987835607957,7.3477484789909795,1.0,,left,gold,0.0,259.0,2.0,right,2023_Nov_07_2051,habits_v_MRI,5.0,40.0,1.0,5.0,30.0,15.0,5.0,15.0,30.0,30.0,60.0,RR,60.02131475831061,
3.0,1.0,resp2,stim/left_resp_img.png,"[0.5, 0]",left,stim/gold_coin.png,gold,,,,,training,,,gold,deval,,,,,0.0,0.0,0.0,0.0,0.0,1.0,1.0,1.0,,,,,,,,,0.0,training_resp,,81.82645668764599,7.714380474295467,1.0,,left,gold,0.0,259.0,2.0,right,2023_Nov_07_2051,habits_v_MRI,5.0,40.0,1.0,5.0,30.0,15.0,5.0,15.0,30.0,30.0,60.0,RR,60.02131475831061,
3.0,1.0,resp2,stim/left_resp_img.png,"[0.5, 0]",left,stim/gold_coin.png,gold,,,,,training,,,gold,deval,,,,,0.0,0.0,0.0,0.0,0.0,1.0,1.0,1.0,,,,,,,,,0.0,training_resp,,82.29322425008286,8.181074432330206,1.0,,left,gold,0.0,259.0,2.0,right,2023_Nov_07_2051,habits_v_MRI,5.0,40.0,1.0,5.0,30.0,15.0,5.0,15.0,30.0,30.0,60.0,RR,60.02131475831061,
3.0,1.0,resp2,stim/left_resp_img.png,"[0.5, 0]",left,stim/gold_coin.png,gold,,,,,training,,,gold,deval,,,,,0.0,0.0,0.0,0.0,0.0,1.0,1.0,1.0,,,,,,,,,0.0,training_resp,,82.80979303643107,8.69762269151397,1.0,,left,gold,0.0,259.0,2.0,right,2023_Nov_07_2051,habits_v_MRI,5.0,40.0,1.0,5.0,30.0,15.0,5.0,15.0,30.0,30.0,60.0,RR,60.02131475831061,
3.0,1.0,resp2,stim/left_resp_img.png,"[0.5, 0]",left,stim/gold_coin.png,gold,,,,,training,,,gold,deval,,,,,0.0,0.0,0.0,0.0,0.0,1.0,1.0,1.0,,,,,,,,,0.0,training_resp,,83.27641485619824,9.164334830711596,1.0,,left,gold,0.0,259.0,2.0,right,2023_Nov_07_2051,habits_v_MRI,5.0,40.0,1.0,5.0,30.0,15.0,5.0,15.0,30.0,30.0,60.0,RR,60.02131475831061,
3.0,1.0,resp2,stim/left_resp_img.png,"[0.5, 0]",left,stim/gold_coin.png,gold,,,,,training,,,gold,deval,,,,,0.0,0.0,0.0,0.0,0.0,1.0,1.0,1.0,,,,,,,,,0.0,training_resp,,83.60964213253465,9.497558588162065,1.0,,left,gold,0.0,259.0,2.0,right,2023_Nov_07_2051,habits_v_MRI,5.0,40.0,1.0,5.0,30.0,15.0,5.0,15.0,30.0,30.0,60.0,RR,60.02131475831061,
3.0,1.0,resp2,stim/left_resp_img.png,"[0.5, 0]",left,stim/gold_coin.png,gold,,,,,training,,,gold,deval,,,,,0.0,0.0,0.0,0.0,0.0,1.0,1.0,1.0,,,,,,,,,0.0,training_resp,,83.87640658661257,9.764311312464995,1.0,,left,gold,0.0,259.0,2.0,right,2023_Nov_07_2051,habits_v_MRI,5.0,40.0,1.0,5.0,30.0,15.0,5.0,15.0,30.0,30.0,60.0,RR,60.02131475831061,
3.0,1.0,resp2,stim/left_resp_img.png,"[0.5, 0]",left,stim/gold_coin.png,gold,,,,,training,,,gold,deval,,,,,0.0,0.0,0.0,0.0,0.0,1.0,1.0,1.0,,,,,,,,,0.0,training_resp,,84.10971940262243,9.997546418453569,1.0,,left,gold,0.0,259.0,2.0,right,2023_Nov_07_2051,habits_v_MRI,5.0,40.0,1.0,5.0,30.0,15.0,5.0,15.0,30.0,30.0,60.0,RR,60.02131475831061,
3.0,1.0,resp2,stim/left_resp_img.png,"[0.5, 0]",left,stim/gold_coin.png,gold,,,,,training,,,gold,deval,,,,,0.0,0.0,0.0,0.0,0.0,1.0,1.0,1.0,,,,,,,,,0.0,training_resp,,84.34337472880725,10.230927853728645,1.0,,left,gold,0.0,259.0,2.0,right,2023_Nov_07_2051,habits_v_MRI,5.0,40.0,1.0,5.0,30.0,15.0,5.0,15.0,30.0,30.0,60.0,RR,60.02131475831061,
3.0,1.0,resp2,stim/left_resp_img.png,"[0.5, 0]",left,stim/gold_coin.png,gold,,,,,training,,,gold,deval,,,,,0.0,0.0,0.0,0.0,0.0,1.0,1.0,1.0,,,,,,,,,0.0,training_resp,,84.59302716015372,10.480908719473518,1.0,,left,gold,0.0,259.0,2.0,right,2023_Nov_07_2051,habits_v_MRI,5.0,40.0,1.0,5.0,30.0,15.0,5.0,15.0,30.0,30.0,60.0,RR,60.02131475831061,
3.0,1.0,resp2,stim/left_resp_img.png,"[0.5, 0]",left,stim/gold_coin.png,gold,,,,,training,,,gold,deval,,,,,0.0,0.0,0.0,0.0,0.0,1.0,1.0,1.0,,,,,,,,,0.0,training_resp,,84.80952295777388,10.697452316060662,1.0,,left,gold,0.0,259.0,2.0,right,2023_Nov_07_2051,habits_v_MRI,5.0,40.0,1.0,5.0,30.0,15.0,5.0,15.0,30.0,30.0,60.0,RR,60.02131475831061,
3.0,1.0,resp2,stim/left_resp_img.png,"[0.5, 0]",left,stim/gold_coin.png,gold,,,,,training,,,gold,deval,,,,,0.0,0.0,0.0,0.0,0.0,1.0,1.0,1.0,,,,,,,,,0.0,training_resp,,85.05955162248574,10.947484499774871,1.0,17.0,left,gold,1.0,259.0,2.0,right,2023_Nov_07_2051,habits_v_MRI,5.0,40.0,1.0,5.0,30.0,15.0,5.0,15.0,30.0,30.0,60.0,RR,60.02131475831061,
3.0,1.0,resp2,stim/left_resp_img.png,"[0.5, 0]",left,stim/gold_coin.png,gold,,,,,training,,,gold,deval,,,,,0.0,0.0,0.0,0.0,0.0,1.0,1.0,1.0,,,,,,,,,0.0,training_resp,,85.54310893150978,11.43081366410479,1.0,,left,gold,0.0,259.0,2.0,right,2023_Nov_07_2051,habits_v_MRI,5.0,40.0,1.0,5.0,30.0,15.0,5.0,15.0,30.0,30.0,60.0,RR,60.02131475831061,
3.0,1.0,resp2,stim/left_resp_img.png,"[0.5, 0]",left,stim/gold_coin.png,gold,,,,,training,,,gold,deval,,,,,0.0,0.0,0.0,0.0,0.0,1.0,1.0,1.0,,,,,,,,,0.0,training_resp,,86.0429730124306,11.930814983672462,1.0,,left,gold,0.0,259.0,2.0,right,2023_Nov_07_2051,habits_v_MRI,5.0,40.0,1.0,5.0,30.0,15.0,5.0,15.0,30.0,30.0,60.0,RR,60.02131475831061,
3.0,1.0,resp2,stim/left_resp_img.png,"[0.5, 0]",left,stim/gold_coin.png,gold,,,,,training,,,gold,deval,,,,,0.0,0.0,0.0,0.0,0.0,1.0,1.0,1.0,,,,,,,,,0.0,training_resp,,86.52625115215778,12.414081393624656,1.0,,left,gold,0.0,259.0,2.0,right,2023_Nov_07_2051,habits_v_MRI,5.0,40.0,1.0,5.0,30.0,15.0,5.0,15.0,30.0,30.0,60.0,RR,60.02131475831061,
3.0,1.0,resp2,stim/left_resp_img.png,"[0.5, 0]",left,stim/gold_coin.png,gold,,,,,training,,,gold,deval,,,,,0.0,0.0,0.0,0.0,0.0,1.0,1.0,1.0,,,,,,,,,0.0,training_resp,,86.90946234401781,12.797381732030772,1.0,,left,gold,0.0,259.0,2.0,right,2023_Nov_07_2051,habits_v_MRI,5.0,40.0,1.0,5.0,30.0,15.0,5.0,15.0,30.0,30.0,60.0,RR,60.02131475831061,
3.0,1.0,resp2,stim/left_resp_img.png,"[0.5, 0]",left,stim/gold_coin.png,gold,,,,,training,,,gold,deval,,,,,0.0,0.0,0.0,0.0,0.0,1.0,1.0,1.0,,,,,,,,,0.0,training_resp,,87.34276419261005,13.230664519709537,1.0,,left,gold,0.0,259.0,2.0,right,2023_Nov_07_2051,habits_v_MRI,5.0,40.0,1.0,5.0,30.0,15.0,5.0,15.0,30.0,30.0,60.0,RR,60.02131475831061,
3.0,1.0,resp2,stim/left_resp_img.png,"[0.5, 0]",left,stim/gold_coin.png,gold,,,,,training,,,gold,deval,,,,,0.0,0.0,0.0,0.0,0.0,1.0,1.0,1.0,,,,,,,,,0.0,training_resp,,87.74274049839005,13.630658713402228,1.0,,left,gold,0.0,259.0,2.0,right,2023_Nov_07_2051,habits_v_MRI,5.0,40.0,1.0,5.0,30.0,15.0,5.0,15.0,30.0,30.0,60.0,RR,60.02131475831061,
3.0,1.0,resp2,stim/left_resp_img.png,"[0.5, 0]",left,stim/gold_coin.png,gold,,,,,training,,,gold,deval,,,,,0.0,0.0,0.0,0.0,0.0,1.0,1.0,1.0,,,,,,,,,0.0,training_resp,,88.17648133484181,14.06438459432684,1.0,,left,gold,0.0,259.0,2.0,right,2023_Nov_07_2051,habits_v_MRI,5.0,40.0,1.0,5.0,30.0,15.0,5.0,15.0,30.0,30.0,60.0,RR,60.02131475831061,
3.0,1.0,resp2,stim/left_resp_img.png,"[0.5, 0]",left,stim/gold_coin.png,gold,,,,,training,,,gold,deval,,,,,0.0,0.0,0.0,0.0,0.0,1.0,1.0,1.0,,,,,,,,,0.0,training_resp,,88.50958134280518,14.39730630943086,1.0,,left,gold,0.0,259.0,2.0,right,2023_Nov_07_2051,habits_v_MRI,5.0,40.0,1.0,5.0,30.0,15.0,5.0,15.0,30.0,30.0,60.0,RR,60.02131475831061,
3.0,1.0,resp2,stim/left_resp_img.png,"[0.5, 0]",left,stim/gold_coin.png,gold,,,,,training,,,gold,deval,,,,,0.0,0.0,0.0,0.0,0.0,1.0,1.0,1.0,,,,,,,,,0.0,training_resp,,88.79266547167208,14.680583100183869,1.0,,left,gold,0.0,259.0,2.0,right,2023_Nov_07_2051,habits_v_MRI,5.0,40.0,1.0,5.0,30.0,15.0,5.0,15.0,30.0,30.0,60.0,RR,60.02131475831061,
3.0,1.0,resp2,stim/left_resp_img.png,"[0.5, 0]",left,stim/gold_coin.png,gold,,,,,training,,,gold,deval,,,,,0.0,0.0,0.0,0.0,0.0,1.0,1.0,1.0,,,,,,,,,0.0,training_resp,,89.04262229125015,14.930556341540068,1.0,,left,gold,0.0,259.0,2.0,right,2023_Nov_07_2051,habits_v_MRI,5.0,40.0,1.0,5.0,30.0,15.0,5.0,15.0,30.0,30.0,60.0,RR,60.02131475831061,
3.0,1.0,resp2,stim/left_resp_img.png,"[0.5, 0]",left,stim/gold_coin.png,gold,,,,,training,,,gold,deval,,,,,0.0,0.0,0.0,0.0,0.0,1.0,1.0,1.0,,,,,,,,,0.0,training_resp,,89.27596971020103,15.163877954822963,1.0,,left,gold,0.0,259.0,2.0,right,2023_Nov_07_2051,habits_v_MRI,5.0,40.0,1.0,5.0,30.0,15.0,5.0,15.0,30.0,30.0,60.0,RR,60.02131475831061,
3.0,1.0,resp2,stim/left_resp_img.png,"[0.5, 0]",left,stim/gold_coin.png,gold,,,,,training,,,gold,deval,,,,,0.0,0.0,0.0,0.0,0.0,1.0,1.0,1.0,,,,,,,,,0.0,training_resp,,89.52590219047852,15.413853542180732,1.0,,left,gold,0.0,259.0,2.0,right,2023_Nov_07_2051,habits_v_MRI,5.0,40.0,1.0,5.0,30.0,15.0,5.0,15.0,30.0,30.0,60.0,RR,60.02131475831061,
3.0,1.0,resp2,stim/left_resp_img.png,"[0.5, 0]",left,stim/gold_coin.png,gold,,,,,training,,,gold,deval,,,,,0.0,0.0,0.0,0.0,0.0,1.0,1.0,1.0,,,,,,,,,0.0,training_resp,,89.77603994240053,15.663826197152956,1.0,,left,gold,0.0,259.0,2.0,right,2023_Nov_07_2051,habits_v_MRI,5.0,40.0,1.0,5.0,30.0,15.0,5.0,15.0,30.0,30.0,60.0,RR,60.02131475831061,
3.0,1.0,resp2,stim/left_resp_img.png,"[0.5, 0]",left,stim/gold_coin.png,gold,,,,,training,,,gold,deval,,,,,0.0,0.0,0.0,0.0,0.0,1.0,1.0,1.0,,,,,,,,,0.0,training_resp,,90.27590460970532,16.16379907191731,1.0,,left,gold,0.0,259.0,2.0,right,2023_Nov_07_2051,habits_v_MRI,5.0,40.0,1.0,5.0,30.0,15.0,5.0,15.0,30.0,30.0,60.0,RR,60.02131475831061,
3.0,1.0,resp2,stim/left_resp_img.png,"[0.5, 0]",left,stim/gold_coin.png,gold,,,,,training,,,gold,deval,,,,,0.0,0.0,0.0,0.0,0.0,1.0,1.0,1.0,,,,,,,,,0.0,training_resp,,90.69290173915216,16.580395628581755,1.0,,left,gold,0.0,259.0,2.0,right,2023_Nov_07_2051,habits_v_MRI,5.0,40.0,1.0,5.0,30.0,15.0,5.0,15.0,30.0,30.0,60.0,RR,60.02131475831061,
3.0,1.0,resp2,stim/left_resp_img.png,"[0.5, 0]",left,stim/gold_coin.png,gold,,,,,training,,,gold,deval,,,,,0.0,0.0,0.0,0.0,0.0,1.0,1.0,1.0,,,,,,,,,0.0,training_resp,,91.392529347213,17.28041178639978,1.0,,left,gold,0.0,259.0,2.0,right,2023_Nov_07_2051,habits_v_MRI,5.0,40.0,1.0,5.0,30.0,15.0,5.0,15.0,30.0,30.0,60.0,RR,60.02131475831061,
3.0,1.0,resp2,stim/left_resp_img.png,"[0.5, 0]",left,stim/gold_coin.png,gold,,,,,training,,,gold,deval,,,,,0.0,0.0,0.0,0.0,0.0,1.0,1.0,1.0,,,,,,,,,0.0,training_resp,,92.37603724445216,18.26371617161203,1.0,9.0,left,gold,1.0,259.0,2.0,right,2023_Nov_07_2051,habits_v_MRI,5.0,40.0,1.0,5.0,30.0,15.0,5.0,15.0,30.0,30.0,60.0,RR,60.02131475831061,
3.0,1.0,resp2,stim/left_resp_img.png,"[0.5, 0]",left,stim/gold_coin.png,gold,,,,,training,,,gold,deval,,,,,0.0,0.0,0.0,0.0,0.0,1.0,1.0,1.0,,,,,,,,,0.0,training_resp,,93.77577250287868,19.66361711337231,1.0,,left,gold,0.0,259.0,2.0,right,2023_Nov_07_2051,habits_v_MRI,5.0,40.0,1.0,5.0,30.0,15.0,5.0,15.0,30.0,30.0,60.0,RR,60.02131475831061,
3.0,1.0,resp2,stim/left_resp_img.png,"[0.5, 0]",left,stim/gold_coin.png,gold,,,,,training,,,gold,deval,,,,,0.0,0.0,0.0,0.0,0.0,1.0,1.0,1.0,,,,,,,,,0.0,training_resp,,94.69234164105728,20.5801997409435,1.0,,left,gold,0.0,259.0,2.0,right,2023_Nov_07_2051,habits_v_MRI,5.0,40.0,1.0,5.0,30.0,15.0,5.0,15.0,30.0,30.0,60.0,RR,60.02131475831061,
3.0,1.0,resp2,stim/left_resp_img.png,"[0.5, 0]",left,stim/gold_coin.png,gold,,,,,training,,,gold,deval,,,,,0.0,0.0,0.0,0.0,0.0,1.0,1.0,1.0,,,,,,,,,0.0,training_resp,,95.6591427802341,21.54680939100217,1.0,,left,gold,0.0,259.0,2.0,right,2023_Nov_07_2051,habits_v_MRI,5.0,40.0,1.0,5.0,30.0,15.0,5.0,15.0,30.0,30.0,60.0,RR,60.02131475831061,
3.0,1.0,resp2,stim/left_resp_img.png,"[0.5, 0]",left,stim/gold_coin.png,gold,,,,,training,,,gold,deval,,,,,0.0,0.0,0.0,0.0,0.0,1.0,1.0,1.0,,,,,,,,,0.0,training_resp,,96.07553230586927,21.963416211190637,1.0,,right,,,259.0,2.0,right,2023_Nov_07_2051,habits_v_MRI,5.0,40.0,1.0,5.0,30.0,15.0,5.0,15.0,30.0,30.0,60.0,RR,60.02131475831061,
3.0,1.0,resp2,stim/left_resp_img.png,"[0.5, 0]",left,stim/gold_coin.png,gold,,,,,training,,,gold,deval,,,,,0.0,0.0,0.0,0.0,0.0,1.0,1.0,1.0,,,,,,,,,0.0,training_resp,,96.50886230589822,22.39675940736197,1.0,,left,gold,0.0,259.0,2.0,right,2023_Nov_07_2051,habits_v_MRI,5.0,40.0,1.0,5.0,30.0,15.0,5.0,15.0,30.0,30.0,60.0,RR,60.02131475831061,
3.0,1.0,resp2,stim/left_resp_img.png,"[0.5, 0]",left,stim/gold_coin.png,gold,,,,,training,,,gold,deval,,,,,0.0,0.0,0.0,0.0,0.0,1.0,1.0,1.0,,,,,,,,,0.0,training_resp,,97.14213471265975,23.029994278680533,1.0,,left,gold,0.0,259.0,2.0,right,2023_Nov_07_2051,habits_v_MRI,5.0,40.0,1.0,5.0,30.0,15.0,5.0,15.0,30.0,30.0,60.0,RR,60.02131475831061,
3.0,1.0,resp2,stim/left_resp_img.png,"[0.5, 0]",left,stim/gold_coin.png,gold,,,,,training,,,gold,deval,,,,,0.0,0.0,0.0,0.0,0.0,1.0,1.0,1.0,,,,,,,,,0.0,training_resp,,97.99228061677422,23.879964529071003,1.0,,left,gold,0.0,259.0,2.0,right,2023_Nov_07_2051,habits_v_MRI,5.0,40.0,1.0,5.0,30.0,15.0,5.0,15.0,30.0,30.0,60.0,RR,60.02131475831061,
3.0,1.0,resp2,stim/left_resp_img.png,"[0.5, 0]",left,stim/gold_coin.png,gold,,,,,training,,,gold,deval,,,,,0.0,0.0,0.0,0.0,0.0,1.0,1.0,1.0,,,,,,,,,0.0,training_resp,,98.85881217569111,24.74664857529569,1.0,,left,gold,0.0,259.0,2.0,right,2023_Nov_07_2051,habits_v_MRI,5.0,40.0,1.0,5.0,30.0,15.0,5.0,15.0,30.0,30.0,60.0,RR,60.02131475831061,
3.0,1.0,resp2,stim/left_resp_img.png,"[0.5, 0]",left,stim/gold_coin.png,gold,,,,,training,,,gold,deval,,,,,0.0,0.0,0.0,0.0,0.0,1.0,1.0,1.0,,,,,,,,,0.0,training_resp,,99.50877110671718,25.39656498585828,1.0,,left,gold,0.0,259.0,2.0,right,2023_Nov_07_2051,habits_v_MRI,5.0,40.0,1.0,5.0,30.0,15.0,5.0,15.0,30.0,30.0,60.0,RR,60.02131475831061,
3.0,1.0,resp2,stim/left_resp_img.png,"[0.5, 0]",left,stim/gold_coin.png,gold,,,,,training,,,gold,deval,,,,,0.0,0.0,0.0,0.0,0.0,1.0,1.0,1.0,,,,,,,,,0.0,training_resp,,100.32526713900734,26.213103245361708,1.0,24.0,left,gold,1.0,259.0,2.0,right,2023_Nov_07_2051,habits_v_MRI,5.0,40.0,1.0,5.0,30.0,15.0,5.0,15.0,30.0,30.0,60.0,RR,60.02131475831061,
3.0,1.0,resp2,stim/left_resp_img.png,"[0.5, 0]",left,stim/gold_coin.png,gold,,,,,training,,,gold,deval,,,,,0.0,0.0,0.0,0.0,0.0,1.0,1.0,1.0,,,,,,,,,0.0,training_resp,,101.1918582265498,27.07976177940145,1.0,,left,gold,0.0,259.0,2.0,right,2023_Nov_07_2051,habits_v_MRI,5.0,40.0,1.0,5.0,30.0,15.0,5.0,15.0,30.0,30.0,60.0,RR,60.02131475831061,
3.0,1.0,resp2,stim/left_resp_img.png,"[0.5, 0]",left,stim/gold_coin.png,gold,,,,,training,,,gold,deval,,,,,0.0,0.0,0.0,0.0,0.0,1.0,1.0,1.0,,,,,,,,,0.0,training_resp,,101.45846579456702,27.34637286630459,1.0,,left,gold,0.0,259.0,2.0,right,2023_Nov_07_2051,habits_v_MRI,5.0,40.0,1.0,5.0,30.0,15.0,5.0,15.0,30.0,30.0,60.0,RR,60.02131475831061,
3.0,1.0,resp2,stim/left_resp_img.png,"[0.5, 0]",left,stim/gold_coin.png,gold,,,,,training,,,gold,deval,,,,,0.0,0.0,0.0,0.0,0.0,1.0,1.0,1.0,,,,,,,,,0.0,training_resp,,101.74188803497236,27.62972678057849,1.0,,left,gold,0.0,259.0,2.0,right,2023_Nov_07_2051,habits_v_MRI,5.0,40.0,1.0,5.0,30.0,15.0,5.0,15.0,30.0,30.0,60.0,RR,60.02131475831061,
3.0,1.0,resp2,stim/left_resp_img.png,"[0.5, 0]",left,stim/gold_coin.png,gold,,,,,training,,,gold,deval,,,,,0.0,0.0,0.0,0.0,0.0,1.0,1.0,1.0,,,,,,,,,0.0,training_resp,,101.97514366812538,27.86305719125085,1.0,,left,gold,0.0,259.0,2.0,right,2023_Nov_07_2051,habits_v_MRI,5.0,40.0,1.0,5.0,30.0,15.0,5.0,15.0,30.0,30.0,60.0,RR,60.02131475831061,
3.0,1.0,resp2,stim/left_resp_img.png,"[0.5, 0]",left,stim/gold_coin.png,gold,,,,,training,,,gold,deval,,,,,0.0,0.0,0.0,0.0,0.0,1.0,1.0,1.0,,,,,,,,,0.0,training_resp,,102.2418386231875,28.12971226498485,1.0,,left,gold,0.0,259.0,2.0,right,2023_Nov_07_2051,habits_v_MRI,5.0,40.0,1.0,5.0,30.0,15.0,5.0,15.0,30.0,30.0,60.0,RR,60.02131475831061,
3.0,1.0,resp2,stim/left_resp_img.png,"[0.5, 0]",left,stim/gold_coin.png,gold,,,,,training,,,gold,deval,,,,,0.0,0.0,0.0,0.0,0.0,1.0,1.0,1.0,,,,,,,,,0.0,training_resp,,102.4918180226814,28.379697236116044,1.0,,left,gold,0.0,259.0,2.0,right,2023_Nov_07_2051,habits_v_MRI,5.0,40.0,1.0,5.0,30.0,15.0,5.0,15.0,30.0,30.0,60.0,RR,60.02131475831061,
3.0,1.0,resp2,stim/left_resp_img.png,"[0.5, 0]",left,stim/gold_coin.png,gold,,,,,training,,,gold,deval,,,,,0.0,0.0,0.0,0.0,0.0,1.0,1.0,1.0,,,,,,,,,0.0,training_resp,,102.7583552119322,28.646300112246536,1.0,,left,gold,0.0,259.0,2.0,right,2023_Nov_07_2051,habits_v_MRI,5.0,40.0,1.0,5.0,30.0,15.0,5.0,15.0,30.0,30.0,60.0,RR,60.02131475831061,
3.0,1.0,resp2,stim/left_resp_img.png,"[0.5, 0]",left,stim/gold_coin.png,gold,,,,,training,,,gold,deval,,,,,0.0,0.0,0.0,0.0,0.0,1.0,1.0,1.0,,,,,,,,,0.0,training_resp,,103.00837859814057,28.896258398075588,1.0,,left,gold,0.0,259.0,2.0,right,2023_Nov_07_2051,habits_v_MRI,5.0,40.0,1.0,5.0,30.0,15.0,5.0,15.0,30.0,30.0,60.0,RR,60.02131475831061,
3.0,1.0,resp2,stim/left_resp_img.png,"[0.5, 0]",left,stim/gold_coin.png,gold,,,,,training,,,gold,deval,,,,,0.0,0.0,0.0,0.0,0.0,1.0,1.0,1.0,,,,,,,,,0.0,training_resp,,103.24193510075564,29.129656255128797,1.0,,left,gold,0.0,259.0,2.0,right,2023_Nov_07_2051,habits_v_MRI,5.0,40.0,1.0,5.0,30.0,15.0,5.0,15.0,30.0,30.0,60.0,RR,60.02131475831061,
3.0,1.0,resp2,stim/left_resp_img.png,"[0.5, 0]",left,stim/gold_coin.png,gold,,,,,training,,,gold,deval,,,,,0.0,0.0,0.0,0.0,0.0,1.0,1.0,1.0,,,,,,,,,0.0,training_resp,,103.54170047538356,29.42963335267268,1.0,,left,gold,0.0,259.0,2.0,right,2023_Nov_07_2051,habits_v_MRI,5.0,40.0,1.0,5.0,30.0,15.0,5.0,15.0,30.0,30.0,60.0,RR,60.02131475831061,
3.0,1.0,resp2,stim/left_resp_img.png,"[0.5, 0]",left,stim/gold_coin.png,gold,,,,,training,,,gold,deval,,,,,0.0,0.0,0.0,0.0,0.0,1.0,1.0,1.0,,,,,,,,,0.0,ITI_start,18.33333333333333,103.7926936231088,29.679619790171277,,,,,,259.0,2.0,right,2023_Nov_07_2051,habits_v_MRI,5.0,40.0,1.0,5.0,30.0,15.0,5.0,15.0,30.0,30.0,60.0,RR,60.02131475831061,
3.0,0.0,resp1,stim/right_resp_img.png,"[-0.5, 0]",right,stim/silver_coin.png,gold,,,,,training,,,silver,val,,,,,0.0,0.0,0.0,0.0,1.0,0.0,2.0,0.0,,,,,,,,,0.0,training_period_start,52.5,122.16147305211052,0.0,2.0,9.0,,,,259.0,2.0,right,2023_Nov_07_2051,habits_v_MRI,5.0,40.0,1.0,5.0,30.0,15.0,5.0,15.0,30.0,30.0,60.0,RR,60.02131475831061,
3.0,0.0,resp1,stim/right_resp_img.png,"[-0.5, 0]",right,stim/silver_coin.png,gold,,,,,training,,,silver,val,,,,,0.0,0.0,0.0,0.0,1.0,0.0,2.0,0.0,,,,,,,,,0.0,training_resp,,123.2240008187946,1.0815312201157212,2.0,,right,silver,0.0,259.0,2.0,right,2023_Nov_07_2051,habits_v_MRI,5.0,40.0,1.0,5.0,30.0,15.0,5.0,15.0,30.0,30.0,60.0,RR,60.02131475831061,
3.0,0.0,resp1,stim/right_resp_img.png,"[-0.5, 0]",right,stim/silver_coin.png,gold,,,,,training,,,silver,val,,,,,0.0,0.0,0.0,0.0,1.0,0.0,2.0,0.0,,,,,,,,,0.0,training_resp,,123.47373653168324,1.3314915588125589,2.0,,right,silver,0.0,259.0,2.0,right,2023_Nov_07_2051,habits_v_MRI,5.0,40.0,1.0,5.0,30.0,15.0,5.0,15.0,30.0,30.0,60.0,RR,60.02131475831061,
3.0,0.0,resp1,stim/right_resp_img.png,"[-0.5, 0]",right,stim/silver_coin.png,gold,,,,,training,,,silver,val,,,,,0.0,0.0,0.0,0.0,1.0,0.0,2.0,0.0,,,,,,,,,0.0,training_resp,,123.69049537018871,1.54817239404656,2.0,,right,silver,0.0,259.0,2.0,right,2023_Nov_07_2051,habits_v_MRI,5.0,40.0,1.0,5.0,30.0,15.0,5.0,15.0,30.0,30.0,60.0,RR,60.02131475831061,
3.0,0.0,resp1,stim/right_resp_img.png,"[-0.5, 0]",right,stim/silver_coin.png,gold,,,,,training,,,silver,val,,,,,0.0,0.0,0.0,0.0,1.0,0.0,2.0,0.0,,,,,,,,,0.0,training_resp,,123.9236530594062,1.7814687882782891,2.0,,right,silver,0.0,259.0,2.0,right,2023_Nov_07_2051,habits_v_MRI,5.0,40.0,1.0,5.0,30.0,15.0,5.0,15.0,30.0,30.0,60.0,RR,60.02131475831061,
3.0,0.0,resp1,stim/right_resp_img.png,"[-0.5, 0]",right,stim/silver_coin.png,gold,,,,,training,,,silver,val,,,,,0.0,0.0,0.0,0.0,1.0,0.0,2.0,0.0,,,,,,,,,0.0,training_resp,,124.1237356372876,1.9814886116655543,2.0,,right,silver,0.0,259.0,2.0,right,2023_Nov_07_2051,habits_v_MRI,5.0,40.0,1.0,5.0,30.0,15.0,5.0,15.0,30.0,30.0,60.0,RR,60.02131475831061,
3.0,0.0,resp1,stim/right_resp_img.png,"[-0.5, 0]",right,stim/silver_coin.png,gold,,,,,training,,,silver,val,,,,,0.0,0.0,0.0,0.0,1.0,0.0,2.0,0.0,,,,,,,,,0.0,training_resp,,124.35698980418964,2.214780900394544,2.0,,right,silver,0.0,259.0,2.0,right,2023_Nov_07_2051,habits_v_MRI,5.0,40.0,1.0,5.0,30.0,15.0,5.0,15.0,30.0,30.0,60.0,RR,60.02131475831061,
3.0,0.0,resp1,stim/right_resp_img.png,"[-0.5, 0]",right,stim/silver_coin.png,gold,,,,,training,,,silver,val,,,,,0.0,0.0,0.0,0.0,1.0,0.0,2.0,0.0,,,,,,,,,0.0,training_resp,,124.57359938090669,2.4314373964443803,2.0,,right,silver,0.0,259.0,2.0,right,2023_Nov_07_2051,habits_v_MRI,5.0,40.0,1.0,5.0,30.0,15.0,5.0,15.0,30.0,30.0,60.0,RR,60.02131475831061,
3.0,0.0,resp1,stim/right_resp_img.png,"[-0.5, 0]",right,stim/silver_coin.png,gold,,,,,training,,,silver,val,,,,,0.0,0.0,0.0,0.0,1.0,0.0,2.0,0.0,,,,,,,,,0.0,training_resp,,124.79026672698092,2.648068380076438,2.0,,right,silver,0.0,259.0,2.0,right,2023_Nov_07_2051,habits_v_MRI,5.0,40.0,1.0,5.0,30.0,15.0,5.0,15.0,30.0,30.0,60.0,RR,60.02131475831061,
3.0,0.0,resp1,stim/right_resp_img.png,"[-0.5, 0]",right,stim/silver_coin.png,gold,,,,,training,,,silver,val,,,,,0.0,0.0,0.0,0.0,1.0,0.0,2.0,0.0,,,,,,,,,0.0,training_resp,,125.0235713319853,2.881401429884136,2.0,14.0,right,silver,1.0,259.0,2.0,right,2023_Nov_07_2051,habits_v_MRI,5.0,40.0,1.0,5.0,30.0,15.0,5.0,15.0,30.0,30.0,60.0,RR,60.02131475831061,
3.0,0.0,resp1,stim/right_resp_img.png,"[-0.5, 0]",right,stim/silver_coin.png,gold,,,,,training,,,silver,val,,,,,0.0,0.0,0.0,0.0,1.0,0.0,2.0,0.0,,,,,,,,,0.0,training_resp,,125.70692677120678,3.5646812118357047,2.0,,right,silver,0.0,259.0,2.0,right,2023_Nov_07_2051,habits_v_MRI,5.0,40.0,1.0,5.0,30.0,15.0,5.0,15.0,30.0,30.0,60.0,RR,60.02131475831061,
3.0,0.0,resp1,stim/right_resp_img.png,"[-0.5, 0]",right,stim/silver_coin.png,gold,,,,,training,,,silver,val,,,,,0.0,0.0,0.0,0.0,1.0,0.0,2.0,0.0,,,,,,,,,0.0,training_resp,,125.97370090242477,3.831294937990606,2.0,,right,silver,0.0,259.0,2.0,right,2023_Nov_07_2051,habits_v_MRI,5.0,40.0,1.0,5.0,30.0,15.0,5.0,15.0,30.0,30.0,60.0,RR,60.02131475831061,
3.0,0.0,resp1,stim/right_resp_img.png,"[-0.5, 0]",right,stim/silver_coin.png,gold,,,,,training,,,silver,val,,,,,0.0,0.0,0.0,0.0,1.0,0.0,2.0,0.0,,,,,,,,,0.0,training_resp,,126.20684627536684,4.064656139351428,2.0,,right,silver,0.0,259.0,2.0,right,2023_Nov_07_2051,habits_v_MRI,5.0,40.0,1.0,5.0,30.0,15.0,5.0,15.0,30.0,30.0,60.0,RR,60.02131475831061,
3.0,0.0,resp1,stim/right_resp_img.png,"[-0.5, 0]",right,stim/silver_coin.png,gold,,,,,training,,,silver,val,,,,,0.0,0.0,0.0,0.0,1.0,0.0,2.0,0.0,,,,,,,,,0.0,training_resp,,126.44012800732162,4.297948721330613,2.0,,right,silver,0.0,259.0,2.0,right,2023_Nov_07_2051,habits_v_MRI,5.0,40.0,1.0,5.0,30.0,15.0,5.0,15.0,30.0,30.0,60.0,RR,60.02131475831061,
3.0,0.0,resp1,stim/right_resp_img.png,"[-0.5, 0]",right,stim/silver_coin.png,gold,,,,,training,,,silver,val,,,,,0.0,0.0,0.0,0.0,1.0,0.0,2.0,0.0,,,,,,,,,0.0,training_resp,,126.65690062835348,4.5146304364316165,2.0,,right,silver,0.0,259.0,2.0,right,2023_Nov_07_2051,habits_v_MRI,5.0,40.0,1.0,5.0,30.0,15.0,5.0,15.0,30.0,30.0,60.0,RR,60.02131475831061,
3.0,0.0,resp1,stim/right_resp_img.png,"[-0.5, 0]",right,stim/silver_coin.png,gold,,,,,training,,,silver,val,,,,,0.0,0.0,0.0,0.0,1.0,0.0,2.0,0.0,,,,,,,,,0.0,training_resp,,126.89008265698794,4.747924777911976,2.0,,right,silver,0.0,259.0,2.0,right,2023_Nov_07_2051,habits_v_MRI,5.0,40.0,1.0,5.0,30.0,15.0,5.0,15.0,30.0,30.0,60.0,RR,60.02131475831061,
3.0,0.0,resp1,stim/right_resp_img.png,"[-0.5, 0]",right,stim/silver_coin.png,gold,,,,,training,,,silver,val,,,,,0.0,0.0,0.0,0.0,1.0,0.0,2.0,0.0,,,,,,,,,0.0,training_resp,,127.12359810527414,4.981226450530812,2.0,,right,silver,0.0,259.0,2.0,right,2023_Nov_07_2051,habits_v_MRI,5.0,40.0,1.0,5.0,30.0,15.0,5.0,15.0,30.0,30.0,60.0,RR,60.02131475831061,
3.0,0.0,resp1,stim/right_resp_img.png,"[-0.5, 0]",right,stim/silver_coin.png,gold,,,,,training,,,silver,val,,,,,0.0,0.0,0.0,0.0,1.0,0.0,2.0,0.0,,,,,,,,,0.0,training_resp,,127.32342555990908,5.181231318390928,2.0,,right,silver,0.0,259.0,2.0,right,2023_Nov_07_2051,habits_v_MRI,5.0,40.0,1.0,5.0,30.0,15.0,5.0,15.0,30.0,30.0,60.0,RR,60.02131475831061,
3.0,0.0,resp1,stim/right_resp_img.png,"[-0.5, 0]",right,stim/silver_coin.png,gold,,,,,training,,,silver,val,,,,,0.0,0.0,0.0,0.0,1.0,0.0,2.0,0.0,,,,,,,,,0.0,training_resp,,127.5733858984895,5.431234470801428,2.0,,right,silver,0.0,259.0,2.0,right,2023_Nov_07_2051,habits_v_MRI,5.0,40.0,1.0,5.0,30.0,15.0,5.0,15.0,30.0,30.0,60.0,RR,60.02131475831061,
3.0,0.0,resp1,stim/right_resp_img.png,"[-0.5, 0]",right,stim/silver_coin.png,gold,,,,,training,,,silver,val,,,,,0.0,0.0,0.0,0.0,1.0,0.0,2.0,0.0,,,,,,,,,0.0,training_resp,,127.84006325888912,5.697830602293834,2.0,,right,silver,0.0,259.0,2.0,right,2023_Nov_07_2051,habits_v_MRI,5.0,40.0,1.0,5.0,30.0,15.0,5.0,15.0,30.0,30.0,60.0,RR,60.02131475831061,
3.0,0.0,resp1,stim/right_resp_img.png,"[-0.5, 0]",right,stim/silver_coin.png,gold,,,,,training,,,silver,val,,,,,0.0,0.0,0.0,0.0,1.0,0.0,2.0,0.0,,,,,,,,,0.0,training_resp,,128.12337377283257,5.981189501704648,2.0,,right,silver,0.0,259.0,2.0,right,2023_Nov_07_2051,habits_v_MRI,5.0,40.0,1.0,5.0,30.0,15.0,5.0,15.0,30.0,30.0,60.0,RR,60.02131475831061,
3.0,0.0,resp1,stim/right_resp_img.png,"[-0.5, 0]",right,stim/silver_coin.png,gold,,,,,training,,,silver,val,,,,,0.0,0.0,0.0,0.0,1.0,0.0,2.0,0.0,,,,,,,,,0.0,training_resp,,128.4233356215991,6.281183314160444,2.0,,right,silver,0.0,259.0,2.0,right,2023_Nov_07_2051,habits_v_MRI,5.0,40.0,1.0,5.0,30.0,15.0,5.0,15.0,30.0,30.0,60.0,RR,60.02131475831061,
3.0,0.0,resp1,stim/right_resp_img.png,"[-0.5, 0]",right,stim/silver_coin.png,gold,,,,,training,,,silver,val,,,,,0.0,0.0,0.0,0.0,1.0,0.0,2.0,0.0,,,,,,,,,0.0,training_resp,,128.67336487281136,6.5311855868203565,2.0,,right,silver,0.0,259.0,2.0,right,2023_Nov_07_2051,habits_v_MRI,5.0,40.0,1.0,5.0,30.0,15.0,5.0,15.0,30.0,30.0,60.0,RR,60.02131475831061,
3.0,0.0,resp1,stim/right_resp_img.png,"[-0.5, 0]",right,stim/silver_coin.png,gold,,,,,training,,,silver,val,,,,,0.0,0.0,0.0,0.0,1.0,0.0,2.0,0.0,,,,,,,,,0.0,training_resp,,128.9399891558569,6.797760018147528,2.0,21.0,right,silver,1.0,259.0,2.0,right,2023_Nov_07_2051,habits_v_MRI,5.0,40.0,1.0,5.0,30.0,15.0,5.0,15.0,30.0,30.0,60.0,RR,60.02131475831061,
3.0,0.0,resp1,stim/right_resp_img.png,"[-0.5, 0]",right,stim/silver_coin.png,gold,,,,,training,,,silver,val,,,,,0.0,0.0,0.0,0.0,1.0,0.0,2.0,0.0,,,,,,,,,0.0,training_resp,,129.52330315939616,7.381114489631727,2.0,,right,silver,0.0,259.0,2.0,right,2023_Nov_07_2051,habits_v_MRI,5.0,40.0,1.0,5.0,30.0,15.0,5.0,15.0,30.0,30.0,60.0,RR,60.02131475831061,
3.0,0.0,resp1,stim/right_resp_img.png,"[-0.5, 0]",right,stim/silver_coin.png,gold,,,,,training,,,silver,val,,,,,0.0,0.0,0.0,0.0,1.0,0.0,2.0,0.0,,,,,,,,,0.0,training_resp,,129.8400060760323,7.697760516661219,2.0,,right,silver,0.0,259.0,2.0,right,2023_Nov_07_2051,habits_v_MRI,5.0,40.0,1.0,5.0,30.0,15.0,5.0,15.0,30.0,30.0,60.0,RR,60.02131475831061,
3.0,0.0,resp1,stim/right_resp_img.png,"[-0.5, 0]",right,stim/silver_coin.png,gold,,,,,training,,,silver,val,,,,,0.0,0.0,0.0,0.0,1.0,0.0,2.0,0.0,,,,,,,,,0.0,training_resp,,130.08988459932152,7.947707366081886,2.0,,right,silver,0.0,259.0,2.0,right,2023_Nov_07_2051,habits_v_MRI,5.0,40.0,1.0,5.0,30.0,15.0,5.0,15.0,30.0,30.0,60.0,RR,60.02131475831061,
3.0,0.0,resp1,stim/right_resp_img.png,"[-0.5, 0]",right,stim/silver_coin.png,gold,,,,,training,,,silver,val,,,,,0.0,0.0,0.0,0.0,1.0,0.0,2.0,0.0,,,,,,,,,0.0,training_resp,,130.37341446056962,8.231042512576096,2.0,,right,silver,0.0,259.0,2.0,right,2023_Nov_07_2051,habits_v_MRI,5.0,40.0,1.0,5.0,30.0,15.0,5.0,15.0,30.0,30.0,60.0,RR,60.02131475831061,
3.0,0.0,resp1,stim/right_resp_img.png,"[-0.5, 0]",right,stim/silver_coin.png,gold,,,,,training,,,silver,val,,,,,0.0,0.0,0.0,0.0,1.0,0.0,2.0,0.0,,,,,,,,,0.0,training_resp,,130.63985077349935,8.497643335955217,2.0,,right,silver,0.0,259.0,2.0,right,2023_Nov_07_2051,habits_v_MRI,5.0,40.0,1.0,5.0,30.0,15.0,5.0,15.0,30.0,30.0,60.0,RR,60.02131475831061,
3.0,0.0,resp1,stim/right_resp_img.png,"[-0.5, 0]",right,stim/silver_coin.png,gold,,,,,training,,,silver,val,,,,,0.0,0.0,0.0,0.0,1.0,0.0,2.0,0.0,,,,,,,,,0.0,training_resp,,130.9065014484804,8.764311605715193,2.0,,right,silver,0.0,259.0,2.0,right,2023_Nov_07_2051,habits_v_MRI,5.0,40.0,1.0,5.0,30.0,15.0,5.0,15.0,30.0,30.0,60.0,RR,60.02131475831061,
3.0,0.0,resp1,stim/right_resp_img.png,"[-0.5, 0]",right,stim/silver_coin.png,gold,,,,,training,,,silver,val,,,,,0.0,0.0,0.0,0.0,1.0,0.0,2.0,0.0,,,,,,,,,0.0,training_resp,,131.15663157601375,9.014344082563184,2.0,,right,silver,0.0,259.0,2.0,right,2023_Nov_07_2051,habits_v_MRI,5.0,40.0,1.0,5.0,30.0,15.0,5.0,15.0,30.0,30.0,60.0,RR,60.02131475831061,
3.0,0.0,resp1,stim/right_resp_img.png,"[-0.5, 0]",right,stim/silver_coin.png,gold,,,,,training,,,silver,val,,,,,0.0,0.0,0.0,0.0,1.0,0.0,2.0,0.0,,,,,,,,,0.0,training_resp,,131.40653033310082,9.264345182222314,2.0,,right,silver,0.0,259.0,2.0,right,2023_Nov_07_2051,habits_v_MRI,5.0,40.0,1.0,5.0,30.0,15.0,5.0,15.0,30.0,30.0,60.0,RR,60.02131475831061,
3.0,0.0,resp1,stim/right_resp_img.png,"[-0.5, 0]",right,stim/silver_coin.png,gold,,,,,training,,,silver,val,,,,,0.0,0.0,0.0,0.0,1.0,0.0,2.0,0.0,,,,,,,,,0.0,training_resp,,131.67320065561216,9.530995270819403,2.0,,right,silver,0.0,259.0,2.0,right,2023_Nov_07_2051,habits_v_MRI,5.0,40.0,1.0,5.0,30.0,15.0,5.0,15.0,30.0,30.0,60.0,RR,60.02131475831061,
3.0,0.0,resp1,stim/right_resp_img.png,"[-0.5, 0]",right,stim/silver_coin.png,gold,,,,,training,,,silver,val,,,,,0.0,0.0,0.0,0.0,1.0,0.0,2.0,0.0,,,,,,,,,0.0,training_resp,,131.9731818586588,9.830950081697663,2.0,,right,silver,0.0,259.0,2.0,right,2023_Nov_07_2051,habits_v_MRI,5.0,40.0,1.0,5.0,30.0,15.0,5.0,15.0,30.0,30.0,60.0,RR,60.02131475831061,
3.0,0.0,resp1,stim/right_resp_img.png,"[-0.5, 0]",right,stim/silver_coin.png,gold,,,,,training,,,silver,val,,,,,0.0,0.0,0.0,0.0,1.0,0.0,2.0,0.0,,,,,,,,,0.0,training_resp,,132.23979089281056,10.097568793105893,2.0,,right,silver,0.0,259.0,2.0,right,2023_Nov_07_2051,habits_v_MRI,5.0,40.0,1.0,5.0,30.0,15.0,5.0,15.0,30.0,30.0,60.0,RR,60.02131475831061,
3.0,0.0,resp1,stim/right_resp_img.png,"[-0.5, 0]",right,stim/silver_coin.png,gold,,,,,training,,,silver,val,,,,,0.0,0.0,0.0,0.0,1.0,0.0,2.0,0.0,,,,,,,,,0.0,training_resp,,132.5064198677428,10.364259642665274,2.0,,right,silver,0.0,259.0,2.0,right,2023_Nov_07_2051,habits_v_MRI,5.0,40.0,1.0,5.0,30.0,15.0,5.0,15.0,30.0,30.0,60.0,RR,60.02131475831061,
3.0,0.0,resp1,stim/right_resp_img.png,"[-0.5, 0]",right,stim/silver_coin.png,gold,,,,,training,,,silver,val,,,,,0.0,0.0,0.0,0.0,1.0,0.0,2.0,0.0,,,,,,,,,0.0,training_resp,,132.73972799174953,10.597529351594858,2.0,,right,silver,0.0,259.0,2.0,right,2023_Nov_07_2051,habits_v_MRI,5.0,40.0,1.0,5.0,30.0,15.0,5.0,15.0,30.0,30.0,60.0,RR,60.02131475831061,
3.0,0.0,resp1,stim/right_resp_img.png,"[-0.5, 0]",right,stim/silver_coin.png,gold,,,,,training,,,silver,val,,,,,0.0,0.0,0.0,0.0,1.0,0.0,2.0,0.0,,,,,,,,,0.0,training_resp,,133.02302237728145,10.88080790184904,2.0,,right,silver,0.0,259.0,2.0,right,2023_Nov_07_2051,habits_v_MRI,5.0,40.0,1.0,5.0,30.0,15.0,5.0,15.0,30.0,30.0,60.0,RR,60.02131475831061,
3.0,0.0,resp1,stim/right_resp_img.png,"[-0.5, 0]",right,stim/silver_coin.png,gold,,,,,training,,,silver,val,,,,,0.0,0.0,0.0,0.0,1.0,0.0,2.0,0.0,,,,,,,,,0.0,training_resp,,133.29001614905428,11.147496698773466,2.0,,right,silver,0.0,259.0,2.0,right,2023_Nov_07_2051,habits_v_MRI,5.0,40.0,1.0,5.0,30.0,15.0,5.0,15.0,30.0,30.0,60.0,RR,60.02131475831061,
3.0,0.0,resp1,stim/right_resp_img.png,"[-0.5, 0]",right,stim/silver_coin.png,gold,,,,,training,,,silver,val,,,,,0.0,0.0,0.0,0.0,1.0,0.0,2.0,0.0,,,,,,,,,0.0,training_resp,,133.55644161184318,11.414224790525624,2.0,,right,silver,0.0,259.0,2.0,right,2023_Nov_07_2051,habits_v_MRI,5.0,40.0,1.0,5.0,30.0,15.0,5.0,15.0,30.0,30.0,60.0,RR,60.02131475831061,
3.0,0.0,resp1,stim/right_resp_img.png,"[-0.5, 0]",right,stim/silver_coin.png,gold,,,,,training,,,silver,val,,,,,0.0,0.0,0.0,0.0,1.0,0.0,2.0,0.0,,,,,,,,,0.0,training_resp,,133.78967349219602,11.647446700488215,2.0,,right,silver,0.0,259.0,2.0,right,2023_Nov_07_2051,habits_v_MRI,5.0,40.0,1.0,5.0,30.0,15.0,5.0,15.0,30.0,30.0,60.0,RR,60.02131475831061,
3.0,0.0,resp1,stim/right_resp_img.png,"[-0.5, 0]",right,stim/silver_coin.png,gold,,,,,training,,,silver,val,,,,,0.0,0.0,0.0,0.0,1.0,0.0,2.0,0.0,,,,,,,,,0.0,training_resp,,134.08968900481705,11.947473356500268,2.0,,right,silver,0.0,259.0,2.0,right,2023_Nov_07_2051,habits_v_MRI,5.0,40.0,1.0,5.0,30.0,15.0,5.0,15.0,30.0,30.0,60.0,RR,60.02131475831061,
3.0,0.0,resp1,stim/right_resp_img.png,"[-0.5, 0]",right,stim/silver_coin.png,gold,,,,,training,,,silver,val,,,,,0.0,0.0,0.0,0.0,1.0,0.0,2.0,0.0,,,,,,,,,0.0,training_resp,,134.37296110368334,12.230785923195072,2.0,,right,silver,0.0,259.0,2.0,right,2023_Nov_07_2051,habits_v_MRI,5.0,40.0,1.0,5.0,30.0,15.0,5.0,15.0,30.0,30.0,60.0,RR,60.02131475831061,
3.0,0.0,resp1,stim/right_resp_img.png,"[-0.5, 0]",right,stim/silver_coin.png,gold,,,,,training,,,silver,val,,,,,0.0,0.0,0.0,0.0,1.0,0.0,2.0,0.0,,,,,,,,,0.0,training_resp,,134.65634844789747,12.51412106968928,2.0,,right,silver,0.0,259.0,2.0,right,2023_Nov_07_2051,habits_v_MRI,5.0,40.0,1.0,5.0,30.0,15.0,5.0,15.0,30.0,30.0,60.0,RR,60.02131475831061,
3.0,0.0,resp1,stim/right_resp_img.png,"[-0.5, 0]",right,stim/silver_coin.png,gold,,,,,training,,,silver,val,,,,,0.0,0.0,0.0,0.0,1.0,0.0,2.0,0.0,,,,,,,,,0.0,training_resp,,134.98964375711512,12.847426349297166,2.0,18.0,right,silver,1.0,259.0,2.0,right,2023_Nov_07_2051,habits_v_MRI,5.0,40.0,1.0,5.0,30.0,15.0,5.0,15.0,30.0,30.0,60.0,RR,60.02131475831061,
3.0,0.0,resp1,stim/right_resp_img.png,"[-0.5, 0]",right,stim/silver_coin.png,gold,,,,,training,,,silver,val,,,,,0.0,0.0,0.0,0.0,1.0,0.0,2.0,0.0,,,,,,,,,0.0,training_resp,,135.83964421169367,13.697344695217907,2.0,,right,silver,0.0,259.0,2.0,right,2023_Nov_07_2051,habits_v_MRI,5.0,40.0,1.0,5.0,30.0,15.0,5.0,15.0,30.0,30.0,60.0,RR,60.02131475831061,
3.0,0.0,resp1,stim/right_resp_img.png,"[-0.5, 0]",right,stim/silver_coin.png,gold,,,,,training,,,silver,val,,,,,0.0,0.0,0.0,0.0,1.0,0.0,2.0,0.0,,,,,,,,,0.0,training_resp,,136.17284480272792,14.03065613284707,2.0,,right,silver,0.0,259.0,2.0,right,2023_Nov_07_2051,habits_v_MRI,5.0,40.0,1.0,5.0,30.0,15.0,5.0,15.0,30.0,30.0,60.0,RR,60.02131475831061,
3.0,0.0,resp1,stim/right_resp_img.png,"[-0.5, 0]",right,stim/silver_coin.png,gold,,,,,training,,,silver,val,,,,,0.0,0.0,0.0,0.0,1.0,0.0,2.0,0.0,,,,,,,,,0.0,training_resp,,136.439589609392,14.297338185133412,2.0,,right,silver,0.0,259.0,2.0,right,2023_Nov_07_2051,habits_v_MRI,5.0,40.0,1.0,5.0,30.0,15.0,5.0,15.0,30.0,30.0,60.0,RR,60.02131475831061,
3.0,0.0,resp1,stim/right_resp_img.png,"[-0.5, 0]",right,stim/silver_coin.png,gold,,,,,training,,,silver,val,,,,,0.0,0.0,0.0,0.0,1.0,0.0,2.0,0.0,,,,,,,,,0.0,training_resp,,136.6895813252777,14.547321690130048,2.0,,right,silver,0.0,259.0,2.0,right,2023_Nov_07_2051,habits_v_MRI,5.0,40.0,1.0,5.0,30.0,15.0,5.0,15.0,30.0,30.0,60.0,RR,60.02131475831061,
3.0,0.0,resp1,stim/right_resp_img.png,"[-0.5, 0]",right,stim/silver_coin.png,gold,,,,,training,,,silver,val,,,,,0.0,0.0,0.0,0.0,1.0,0.0,2.0,0.0,,,,,,,,,0.0,training_resp,,136.9395891695749,14.797315165400503,2.0,,right,silver,0.0,259.0,2.0,right,2023_Nov_07_2051,habits_v_MRI,5.0,40.0,1.0,5.0,30.0,15.0,5.0,15.0,30.0,30.0,60.0,RR,60.02131475831061,
3.0,0.0,resp1,stim/right_resp_img.png,"[-0.5, 0]",right,stim/silver_coin.png,gold,,,,,training,,,silver,val,,,,,0.0,0.0,0.0,0.0,1.0,0.0,2.0,0.0,,,,,,,,,0.0,training_resp,,137.17278879287187,15.030569625552744,2.0,,right,silver,0.0,259.0,2.0,right,2023_Nov_07_2051,habits_v_MRI,5.0,40.0,1.0,5.0,30.0,15.0,5.0,15.0,30.0,30.0,60.0,RR,60.02131475831061,
3.0,0.0,resp1,stim/right_resp_img.png,"[-0.5, 0]",right,stim/silver_coin.png,gold,,,,,training,,,silver,val,,,,,0.0,0.0,0.0,0.0,1.0,0.0,2.0,0.0,,,,,,,,,0.0,training_resp,,137.35618953837547,15.213904390926473,2.0,,right,silver,0.0,259.0,2.0,right,2023_Nov_07_2051,habits_v_MRI,5.0,40.0,1.0,5.0,30.0,15.0,5.0,15.0,30.0,30.0,60.0,RR,60.02131475831061,
3.0,0.0,resp1,stim/right_resp_img.png,"[-0.5, 0]",right,stim/silver_coin.png,gold,,,,,training,,,silver,val,,,,,0.0,0.0,0.0,0.0,1.0,0.0,2.0,0.0,,,,,,,,,0.0,training_resp,,137.77278932079207,15.6305903873872,2.0,,right,silver,0.0,259.0,2.0,right,2023_Nov_07_2051,habits_v_MRI,5.0,40.0,1.0,5.0,30.0,15.0,5.0,15.0,30.0,30.0,60.0,RR,60.02131475831061,
3.0,0.0,resp1,stim/right_resp_img.png,"[-0.5, 0]",right,stim/silver_coin.png,gold,,,,,training,,,silver,val,,,,,0.0,0.0,0.0,0.0,1.0,0.0,2.0,0.0,,,,,,,,,0.0,training_resp,,138.02278074331116,15.880552192218602,2.0,,right,silver,0.0,259.0,2.0,right,2023_Nov_07_2051,habits_v_MRI,5.0,40.0,1.0,5.0,30.0,15.0,5.0,15.0,30.0,30.0,60.0,RR,60.02131475831061,
3.0,0.0,resp1,stim/right_resp_img.png,"[-0.5, 0]",right,stim/silver_coin.png,gold,,,,,training,,,silver,val,,,,,0.0,0.0,0.0,0.0,1.0,0.0,2.0,0.0,,,,,,,,,0.0,training_resp,,138.4059690621216,16.26377423410304,2.0,,right,silver,0.0,259.0,2.0,right,2023_Nov_07_2051,habits_v_MRI,5.0,40.0,1.0,5.0,30.0,15.0,5.0,15.0,30.0,30.0,60.0,RR,60.02131475831061,
3.0,0.0,resp1,stim/right_resp_img.png,"[-0.5, 0]",right,stim/silver_coin.png,gold,,,,,training,,,silver,val,,,,,0.0,0.0,0.0,0.0,1.0,0.0,2.0,0.0,,,,,,,,,0.0,training_resp,,138.87276272347663,16.730513351853006,2.0,,right,silver,0.0,259.0,2.0,right,2023_Nov_07_2051,habits_v_MRI,5.0,40.0,1.0,5.0,30.0,15.0,5.0,15.0,30.0,30.0,60.0,RR,60.02131475831061,
3.0,0.0,resp1,stim/right_resp_img.png,"[-0.5, 0]",right,stim/silver_coin.png,gold,,,,,training,,,silver,val,,,,,0.0,0.0,0.0,0.0,1.0,0.0,2.0,0.0,,,,,,,,,0.0,training_resp,,139.28955311502796,17.1471248640446,2.0,,right,silver,0.0,259.0,2.0,right,2023_Nov_07_2051,habits_v_MRI,5.0,40.0,1.0,5.0,30.0,15.0,5.0,15.0,30.0,30.0,60.0,RR,60.02131475831061,
3.0,0.0,resp1,stim/right_resp_img.png,"[-0.5, 0]",right,stim/silver_coin.png,gold,,,,,training,,,silver,val,,,,,0.0,0.0,0.0,0.0,1.0,0.0,2.0,0.0,,,,,,,,,0.0,training_resp,,139.6226965233218,17.48040228523314,2.0,,right,silver,0.0,259.0,2.0,right,2023_Nov_07_2051,habits_v_MRI,5.0,40.0,1.0,5.0,30.0,15.0,5.0,15.0,30.0,30.0,60.0,RR,60.02131475831061,
3.0,0.0,resp1,stim/right_resp_img.png,"[-0.5, 0]",right,stim/silver_coin.png,gold,,,,,training,,,silver,val,,,,,0.0,0.0,0.0,0.0,1.0,0.0,2.0,0.0,,,,,,,,,0.0,training_resp,,139.8893562889425,17.747062637354247,2.0,,right,silver,0.0,259.0,2.0,right,2023_Nov_07_2051,habits_v_MRI,5.0,40.0,1.0,5.0,30.0,15.0,5.0,15.0,30.0,30.0,60.0,RR,60.02131475831061,
3.0,0.0,resp1,stim/right_resp_img.png,"[-0.5, 0]",right,stim/silver_coin.png,gold,,,,,training,,,silver,val,,,,,0.0,0.0,0.0,0.0,1.0,0.0,2.0,0.0,,,,,,,,,0.0,training_resp,,140.13921164581552,17.997020923299715,2.0,,right,silver,0.0,259.0,2.0,right,2023_Nov_07_2051,habits_v_MRI,5.0,40.0,1.0,5.0,30.0,15.0,5.0,15.0,30.0,30.0,60.0,RR,60.02131475831061,
3.0,0.0,resp1,stim/right_resp_img.png,"[-0.5, 0]",right,stim/silver_coin.png,gold,,,,,training,,,silver,val,,,,,0.0,0.0,0.0,0.0,1.0,0.0,2.0,0.0,,,,,,,,,0.0,training_resp,,140.38945584569592,18.247065423289317,2.0,,right,silver,0.0,259.0,2.0,right,2023_Nov_07_2051,habits_v_MRI,5.0,40.0,1.0,5.0,30.0,15.0,5.0,15.0,30.0,30.0,60.0,RR,60.02131475831061,
3.0,0.0,resp1,stim/right_resp_img.png,"[-0.5, 0]",right,stim/silver_coin.png,gold,,,,,training,,,silver,val,,,,,0.0,0.0,0.0,0.0,1.0,0.0,2.0,0.0,,,,,,,,,0.0,training_resp,,140.63919214508496,18.497034559142776,2.0,,right,silver,0.0,259.0,2.0,right,2023_Nov_07_2051,habits_v_MRI,5.0,40.0,1.0,5.0,30.0,15.0,5.0,15.0,30.0,30.0,60.0,RR,60.02131475831061,
3.0,0.0,resp1,stim/right_resp_img.png,"[-0.5, 0]",right,stim/silver_coin.png,gold,,,,,training,,,silver,val,,,,,0.0,0.0,0.0,0.0,1.0,0.0,2.0,0.0,,,,,,,,,0.0,training_resp,,140.8558011353016,18.713623902061958,2.0,13.0,right,silver,1.0,259.0,2.0,right,2023_Nov_07_2051,habits_v_MRI,5.0,40.0,1.0,5.0,30.0,15.0,5.0,15.0,30.0,30.0,60.0,RR,60.02131475831061,
3.0,0.0,resp1,stim/right_resp_img.png,"[-0.5, 0]",right,stim/silver_coin.png,gold,,,,,training,,,silver,val,,,,,0.0,0.0,0.0,0.0,1.0,0.0,2.0,0.0,,,,,,,,,0.0,training_resp,,141.57252141204663,19.43030107172672,2.0,,right,silver,0.0,259.0,2.0,right,2023_Nov_07_2051,habits_v_MRI,5.0,40.0,1.0,5.0,30.0,15.0,5.0,15.0,30.0,30.0,60.0,RR,60.02131475831061,
3.0,0.0,resp1,stim/right_resp_img.png,"[-0.5, 0]",right,stim/silver_coin.png,gold,,,,,training,,,silver,val,,,,,0.0,0.0,0.0,0.0,1.0,0.0,2.0,0.0,,,,,,,,,0.0,training_resp,,142.0057681305334,19.86352521041408,2.0,,right,silver,0.0,259.0,2.0,right,2023_Nov_07_2051,habits_v_MRI,5.0,40.0,1.0,5.0,30.0,15.0,5.0,15.0,30.0,30.0,60.0,RR,60.02131475831061,
3.0,0.0,resp1,stim/right_resp_img.png,"[-0.5, 0]",right,stim/silver_coin.png,gold,,,,,training,,,silver,val,,,,,0.0,0.0,0.0,0.0,1.0,0.0,2.0,0.0,,,,,,,,,0.0,training_resp,,142.30574698757846,20.163568288087845,2.0,,right,silver,0.0,259.0,2.0,right,2023_Nov_07_2051,habits_v_MRI,5.0,40.0,1.0,5.0,30.0,15.0,5.0,15.0,30.0,30.0,60.0,RR,60.02131475831061,
3.0,0.0,resp1,stim/right_resp_img.png,"[-0.5, 0]",right,stim/silver_coin.png,gold,,,,,training,,,silver,val,,,,,0.0,0.0,0.0,0.0,1.0,0.0,2.0,0.0,,,,,,,,,0.0,training_resp,,142.73903857264668,20.59688949084375,2.0,,right,silver,0.0,259.0,2.0,right,2023_Nov_07_2051,habits_v_MRI,5.0,40.0,1.0,5.0,30.0,15.0,5.0,15.0,30.0,30.0,60.0,RR,60.02131475831061,
3.0,0.0,resp1,stim/right_resp_img.png,"[-0.5, 0]",right,stim/silver_coin.png,gold,,,,,training,,,silver,val,,,,,0.0,0.0,0.0,0.0,1.0,0.0,2.0,0.0,,,,,,,,,0.0,training_resp,,143.03905848390423,20.89686013699975,2.0,,right,silver,0.0,259.0,2.0,right,2023_Nov_07_2051,habits_v_MRI,5.0,40.0,1.0,5.0,30.0,15.0,5.0,15.0,30.0,30.0,60.0,RR,60.02131475831061,
3.0,0.0,resp1,stim/right_resp_img.png,"[-0.5, 0]",right,stim/silver_coin.png,gold,,,,,training,,,silver,val,,,,,0.0,0.0,0.0,0.0,1.0,0.0,2.0,0.0,,,,,,,,,0.0,training_resp,,143.28921881574206,21.14689085446298,2.0,,right,silver,0.0,259.0,2.0,right,2023_Nov_07_2051,habits_v_MRI,5.0,40.0,1.0,5.0,30.0,15.0,5.0,15.0,30.0,30.0,60.0,RR,60.02131475831061,
3.0,0.0,resp1,stim/right_resp_img.png,"[-0.5, 0]",right,stim/silver_coin.png,gold,,,,,training,,,silver,val,,,,,0.0,0.0,0.0,0.0,1.0,0.0,2.0,0.0,,,,,,,,,0.0,training_resp,,143.48899583215825,21.346838832716458,2.0,,right,silver,0.0,259.0,2.0,right,2023_Nov_07_2051,habits_v_MRI,5.0,40.0,1.0,5.0,30.0,15.0,5.0,15.0,30.0,30.0,60.0,RR,60.02131475831061,
3.0,0.0,resp1,stim/right_resp_img.png,"[-0.5, 0]",right,stim/silver_coin.png,gold,,,,,training,,,silver,val,,,,,0.0,0.0,0.0,0.0,1.0,0.0,2.0,0.0,,,,,,,,,0.0,training_resp,,143.72238107956946,21.580154874478467,2.0,,right,silver,0.0,259.0,2.0,right,2023_Nov_07_2051,habits_v_MRI,5.0,40.0,1.0,5.0,30.0,15.0,5.0,15.0,30.0,30.0,60.0,RR,60.02131475831061,
3.0,0.0,resp1,stim/right_resp_img.png,"[-0.5, 0]",right,stim/silver_coin.png,gold,,,,,training,,,silver,val,,,,,0.0,0.0,0.0,0.0,1.0,0.0,2.0,0.0,,,,,,,,,0.0,training_resp,,144.18902430625167,22.046815109206364,2.0,,right,silver,0.0,259.0,2.0,right,2023_Nov_07_2051,habits_v_MRI,5.0,40.0,1.0,5.0,30.0,15.0,5.0,15.0,30.0,30.0,60.0,RR,60.02131475831061,
3.0,0.0,resp1,stim/right_resp_img.png,"[-0.5, 0]",right,stim/silver_coin.png,gold,,,,,training,,,silver,val,,,,,0.0,0.0,0.0,0.0,1.0,0.0,2.0,0.0,,,,,,,,,0.0,training_resp,,144.50580522604287,22.36343855643645,2.0,,right,silver,0.0,259.0,2.0,right,2023_Nov_07_2051,habits_v_MRI,5.0,40.0,1.0,5.0,30.0,15.0,5.0,15.0,30.0,30.0,60.0,RR,60.02131475831061,
3.0,0.0,resp1,stim/right_resp_img.png,"[-0.5, 0]",right,stim/silver_coin.png,gold,,,,,training,,,silver,val,,,,,0.0,0.0,0.0,0.0,1.0,0.0,2.0,0.0,,,,,,,,,0.0,training_resp,,144.80576590192504,22.66346726519987,2.0,,right,silver,0.0,259.0,2.0,right,2023_Nov_07_2051,habits_v_MRI,5.0,40.0,1.0,5.0,30.0,15.0,5.0,15.0,30.0,30.0,60.0,RR,60.02131475831061,
3.0,0.0,resp1,stim/right_resp_img.png,"[-0.5, 0]",right,stim/silver_coin.png,gold,,,,,training,,,silver,val,,,,,0.0,0.0,0.0,0.0,1.0,0.0,2.0,0.0,,,,,,,,,0.0,training_resp,,145.05547258350998,22.913245498551987,2.0,,right,silver,0.0,259.0,2.0,right,2023_Nov_07_2051,habits_v_MRI,5.0,40.0,1.0,5.0,30.0,15.0,5.0,15.0,30.0,30.0,60.0,RR,60.02131475831061,
3.0,0.0,resp1,stim/right_resp_img.png,"[-0.5, 0]",right,stim/silver_coin.png,gold,,,,,training,,,silver,val,,,,,0.0,0.0,0.0,0.0,1.0,0.0,2.0,0.0,,,,,,,,,0.0,training_resp,,145.33922296506353,23.19677301391493,2.0,11.0,right,silver,1.0,259.0,2.0,right,2023_Nov_07_2051,habits_v_MRI,5.0,40.0,1.0,5.0,30.0,15.0,5.0,15.0,30.0,30.0,60.0,RR,60.02131475831061,
3.0,0.0,resp1,stim/right_resp_img.png,"[-0.5, 0]",right,stim/silver_coin.png,gold,,,,,training,,,silver,val,,,,,0.0,0.0,0.0,0.0,1.0,0.0,2.0,0.0,,,,,,,,,0.0,training_resp,,145.90590088255703,23.763325715786777,2.0,,right,silver,0.0,259.0,2.0,right,2023_Nov_07_2051,habits_v_MRI,5.0,40.0,1.0,5.0,30.0,15.0,5.0,15.0,30.0,30.0,60.0,RR,60.02131475831061,
3.0,0.0,resp1,stim/right_resp_img.png,"[-0.5, 0]",right,stim/silver_coin.png,gold,,,,,training,,,silver,val,,,,,0.0,0.0,0.0,0.0,1.0,0.0,2.0,0.0,,,,,,,,,0.0,training_resp,,146.1890524578048,24.046661155531183,2.0,,right,silver,0.0,259.0,2.0,right,2023_Nov_07_2051,habits_v_MRI,5.0,40.0,1.0,5.0,30.0,15.0,5.0,15.0,30.0,30.0,60.0,RR,60.02131475831061,
3.0,0.0,resp1,stim/right_resp_img.png,"[-0.5, 0]",right,stim/silver_coin.png,gold,,,,,training,,,silver,val,,,,,0.0,0.0,0.0,0.0,1.0,0.0,2.0,0.0,,,,,,,,,0.0,training_resp,,146.4390544372145,24.296639675390907,2.0,,right,silver,0.0,259.0,2.0,right,2023_Nov_07_2051,habits_v_MRI,5.0,40.0,1.0,5.0,30.0,15.0,5.0,15.0,30.0,30.0,60.0,RR,60.02131475831061,
3.0,0.0,resp1,stim/right_resp_img.png,"[-0.5, 0]",right,stim/silver_coin.png,gold,,,,,training,,,silver,val,,,,,0.0,0.0,0.0,0.0,1.0,0.0,2.0,0.0,,,,,,,,,0.0,training_resp,,146.92367915820796,24.78000960079953,2.0,,right,silver,0.0,259.0,2.0,right,2023_Nov_07_2051,habits_v_MRI,5.0,40.0,1.0,5.0,30.0,15.0,5.0,15.0,30.0,30.0,60.0,RR,60.02131475831061,
3.0,0.0,resp1,stim/right_resp_img.png,"[-0.5, 0]",right,stim/silver_coin.png,gold,,,,,training,,,silver,val,,,,,0.0,0.0,0.0,0.0,1.0,0.0,2.0,0.0,,,,,,,,,0.0,training_resp,,147.23850354691967,25.09636912751012,2.0,,right,silver,0.0,259.0,2.0,right,2023_Nov_07_2051,habits_v_MRI,5.0,40.0,1.0,5.0,30.0,15.0,5.0,15.0,30.0,30.0,60.0,RR,60.02131475831061,
3.0,0.0,resp1,stim/right_resp_img.png,"[-0.5, 0]",right,stim/silver_coin.png,gold,,,,,training,,,silver,val,,,,,0.0,0.0,0.0,0.0,1.0,0.0,2.0,0.0,,,,,,,,,0.0,training_resp,,147.48844365170226,25.34637433255557,2.0,,right,silver,0.0,259.0,2.0,right,2023_Nov_07_2051,habits_v_MRI,5.0,40.0,1.0,5.0,30.0,15.0,5.0,15.0,30.0,30.0,60.0,RR,60.02131475831061,
3.0,0.0,resp1,stim/right_resp_img.png,"[-0.5, 0]",right,stim/silver_coin.png,gold,,,,,training,,,silver,val,,,,,0.0,0.0,0.0,0.0,1.0,0.0,2.0,0.0,,,,,,,,,0.0,training_resp,,147.7219265497988,25.57978743838612,2.0,,right,silver,0.0,259.0,2.0,right,2023_Nov_07_2051,habits_v_MRI,5.0,40.0,1.0,5.0,30.0,15.0,5.0,15.0,30.0,30.0,60.0,RR,60.02131475831061,
3.0,0.0,resp1,stim/right_resp_img.png,"[-0.5, 0]",right,stim/silver_coin.png,gold,,,,,training,,,silver,val,,,,,0.0,0.0,0.0,0.0,1.0,0.0,2.0,0.0,,,,,,,,,0.0,training_resp,,147.98850860539824,25.846403803676367,2.0,,right,silver,0.0,259.0,2.0,right,2023_Nov_07_2051,habits_v_MRI,5.0,40.0,1.0,5.0,30.0,15.0,5.0,15.0,30.0,30.0,60.0,RR,60.02131475831061,
3.0,0.0,resp1,stim/right_resp_img.png,"[-0.5, 0]",right,stim/silver_coin.png,gold,,,,,training,,,silver,val,,,,,0.0,0.0,0.0,0.0,1.0,0.0,2.0,0.0,,,,,,,,,0.0,training_resp,,148.28844963386655,26.14633955375757,2.0,,right,silver,0.0,259.0,2.0,right,2023_Nov_07_2051,habits_v_MRI,5.0,40.0,1.0,5.0,30.0,15.0,5.0,15.0,30.0,30.0,60.0,RR,60.02131475831061,
3.0,0.0,resp1,stim/right_resp_img.png,"[-0.5, 0]",right,stim/silver_coin.png,gold,,,,,training,,,silver,val,,,,,0.0,0.0,0.0,0.0,1.0,0.0,2.0,0.0,,,,,,,,,0.0,training_resp,,148.70533269096632,26.563007662189197,2.0,,right,silver,0.0,259.0,2.0,right,2023_Nov_07_2051,habits_v_MRI,5.0,40.0,1.0,5.0,30.0,15.0,5.0,15.0,30.0,30.0,60.0,RR,60.02131475831061,
3.0,0.0,resp1,stim/right_resp_img.png,"[-0.5, 0]",right,stim/silver_coin.png,gold,,,,,training,,,silver,val,,,,,0.0,0.0,0.0,0.0,1.0,0.0,2.0,0.0,,,,,,,,,0.0,training_resp,,149.03846231673378,26.89634490548633,2.0,14.0,right,silver,1.0,259.0,2.0,right,2023_Nov_07_2051,habits_v_MRI,5.0,40.0,1.0,5.0,30.0,15.0,5.0,15.0,30.0,30.0,60.0,RR,60.02131475831061,
3.0,0.0,resp1,stim/right_resp_img.png,"[-0.5, 0]",right,stim/silver_coin.png,gold,,,,,training,,,silver,val,,,,,0.0,0.0,0.0,0.0,1.0,0.0,2.0,0.0,,,,,,,,,0.0,training_resp,,149.53831232187804,27.39623332570773,2.0,,right,silver,0.0,259.0,2.0,right,2023_Nov_07_2051,habits_v_MRI,5.0,40.0,1.0,5.0,30.0,15.0,5.0,15.0,30.0,30.0,60.0,RR,60.02131475831061,
3.0,0.0,resp1,stim/right_resp_img.png,"[-0.5, 0]",right,stim/silver_coin.png,gold,,,,,training,,,silver,val,,,,,0.0,0.0,0.0,0.0,1.0,0.0,2.0,0.0,,,,,,,,,0.0,training_resp,,149.83828238153365,27.69624150719028,2.0,,right,silver,0.0,259.0,2.0,right,2023_Nov_07_2051,habits_v_MRI,5.0,40.0,1.0,5.0,30.0,15.0,5.0,15.0,30.0,30.0,60.0,RR,60.02131475831061,
3.0,0.0,resp1,stim/right_resp_img.png,"[-0.5, 0]",right,stim/silver_coin.png,gold,,,,,training,,,silver,val,,,,,0.0,0.0,0.0,0.0,1.0,0.0,2.0,0.0,,,,,,,,,0.0,training_resp,,150.17157446511555,28.029554704437032,2.0,,right,silver,0.0,259.0,2.0,right,2023_Nov_07_2051,habits_v_MRI,5.0,40.0,1.0,5.0,30.0,15.0,5.0,15.0,30.0,30.0,60.0,RR,60.02131475831061,
3.0,0.0,resp1,stim/right_resp_img.png,"[-0.5, 0]",right,stim/silver_coin.png,gold,,,,,training,,,silver,val,,,,,0.0,0.0,0.0,0.0,1.0,0.0,2.0,0.0,,,,,,,,,0.0,training_resp,,150.42168318573383,28.279581316397525,2.0,,right,silver,0.0,259.0,2.0,right,2023_Nov_07_2051,habits_v_MRI,5.0,40.0,1.0,5.0,30.0,15.0,5.0,15.0,30.0,30.0,60.0,RR,60.02131475831061,
3.0,0.0,resp1,stim/right_resp_img.png,"[-0.5, 0]",right,stim/silver_coin.png,gold,,,,,training,,,silver,val,,,,,0.0,0.0,0.0,0.0,1.0,0.0,2.0,0.0,,,,,,,,,0.0,training_resp,,150.68818723817822,28.546161026111804,2.0,,right,silver,0.0,259.0,2.0,right,2023_Nov_07_2051,habits_v_MRI,5.0,40.0,1.0,5.0,30.0,15.0,5.0,15.0,30.0,30.0,60.0,RR,60.02131475831061,
3.0,0.0,resp1,stim/right_resp_img.png,"[-0.5, 0]",right,stim/silver_coin.png,gold,,,,,training,,,silver,val,,,,,0.0,0.0,0.0,0.0,1.0,0.0,2.0,0.0,,,,,,,,,0.0,training_resp,,150.95499743858818,28.812894103000872,2.0,,right,silver,0.0,259.0,2.0,right,2023_Nov_07_2051,habits_v_MRI,5.0,40.0,1.0,5.0,30.0,15.0,5.0,15.0,30.0,30.0,60.0,RR,60.02131475831061,
3.0,0.0,resp1,stim/right_resp_img.png,"[-0.5, 0]",right,stim/silver_coin.png,gold,,,,,training,,,silver,val,,,,,0.0,0.0,0.0,0.0,1.0,0.0,2.0,0.0,,,,,,,,,0.0,training_resp,,151.25526748795528,29.11288996820804,2.0,,right,silver,0.0,259.0,2.0,right,2023_Nov_07_2051,habits_v_MRI,5.0,40.0,1.0,5.0,30.0,15.0,5.0,15.0,30.0,30.0,60.0,RR,60.02131475831061,
3.0,0.0,resp1,stim/right_resp_img.png,"[-0.5, 0]",right,stim/silver_coin.png,gold,,,,,training,,,silver,val,,,,,0.0,0.0,0.0,0.0,1.0,0.0,2.0,0.0,,,,,,,,,0.0,training_resp,,151.50530172430445,29.362873473204672,2.0,,right,silver,0.0,259.0,2.0,right,2023_Nov_07_2051,habits_v_MRI,5.0,40.0,1.0,5.0,30.0,15.0,5.0,15.0,30.0,30.0,60.0,RR,60.02131475831061,
3.0,0.0,resp1,stim/right_resp_img.png,"[-0.5, 0]",right,stim/silver_coin.png,gold,,,,,training,,,silver,val,,,,,0.0,0.0,0.0,0.0,1.0,0.0,2.0,0.0,,,,,,,,,0.0,training_resp,,151.75493568112142,29.61288483650424,2.0,,right,silver,0.0,259.0,2.0,right,2023_Nov_07_2051,habits_v_MRI,5.0,40.0,1.0,5.0,30.0,15.0,5.0,15.0,30.0,30.0,60.0,RR,60.02131475831061,
3.0,0.0,resp1,stim/right_resp_img.png,"[-0.5, 0]",right,stim/silver_coin.png,gold,,,,,training,,,silver,val,,,,,0.0,0.0,0.0,0.0,1.0,0.0,2.0,0.0,,,,,,,,,0.0,training_resp,,151.98825113626663,29.846165688708425,2.0,,right,silver,0.0,259.0,2.0,right,2023_Nov_07_2051,habits_v_MRI,5.0,40.0,1.0,5.0,30.0,15.0,5.0,15.0,30.0,30.0,60.0,RR,60.02131475831061,
3.0,0.0,resp1,stim/right_resp_img.png,"[-0.5, 0]",right,stim/silver_coin.png,gold,,,,,training,,,silver,val,,,,,0.0,0.0,0.0,0.0,1.0,0.0,2.0,0.0,,,,,,,,,0.0,training_resp,,152.2549833334051,30.11283249221742,2.0,,right,silver,0.0,259.0,2.0,right,2023_Nov_07_2051,habits_v_MRI,5.0,40.0,1.0,5.0,30.0,15.0,5.0,15.0,30.0,30.0,60.0,RR,60.02131475831061,
3.0,0.0,resp1,stim/right_resp_img.png,"[-0.5, 0]",right,stim/silver_coin.png,gold,,,,,training,,,silver,val,,,,,0.0,0.0,0.0,0.0,1.0,0.0,2.0,0.0,,,,,,,,,0.0,training_resp,,152.5549196699867,30.412806950625964,2.0,,right,silver,0.0,259.0,2.0,right,2023_Nov_07_2051,habits_v_MRI,5.0,40.0,1.0,5.0,30.0,15.0,5.0,15.0,30.0,30.0,60.0,RR,60.02131475831061,
