list,trial_num_python,condition,stimulus,position,corrResp,coin_img,devalued_coin,stimulus_choice1,stimulus_choice2,position1,position2,phase,corrResp1,corrResp2,outcome,cond_val,outcome_choice1,outcome_choice2,cond_val1,cond_val2,blockLoop.thisRepN,blockLoop.thisTrialN,blockLoop.thisN,blockLoop.thisIndex,trialLoop.thisRepN,trialLoop.thisTrialN,trialLoop.thisN,trialLoop.thisIndex,run,event,duration,globalClock_t,routineClock_t,trial,nResp_untilRnf,resp,selected_coin,wasRnf,participant,task_ordering,hand,date,expName,n_repeat_training,credits_per_rnf,cost_response,min_resp_bet_rnf,max_resp_bet_rnf,mean_resp_bet_rnf,sigma_resp_bet_rnf,min_ITI,max_ITI,min_trial_duration,max_trial_duration,schedule,frameRate
9,0,resp1,stim/right_resp_img.png,"[-0.5, 0]",right,stim/silver_coin.png,silver,,,,,training,,,silver,deval,,,,,0,0,0,0,0.0,0.0,0.0,0.0,0,instr_before_block,6.0,0.005606878548861,,,,,,,73,2,right,2022_Feb_25_1240,habits_v_MRI,5,40,1,5,30,15,5,15,30,30,60,RR,60.0789107741187
9,0,resp1,stim/right_resp_img.png,"[-0.5, 0]",right,stim/silver_coin.png,silver,,,,,training,,,silver,deval,,,,,0,0,0,0,0.0,0.0,0.0,0.0,0,training_period_start,52.5,6.03419521497563,0.0,0.0,11.0,,,,73,2,right,2022_Feb_25_1240,habits_v_MRI,5,40,1,5,30,15,5,15,30,30,60,RR,60.0789107741187
9,0,resp1,stim/right_resp_img.png,"[-0.5, 0]",right,stim/silver_coin.png,silver,,,,,training,,,silver,deval,,,,,0,0,0,0,0.0,0.0,0.0,0.0,0,training_resp,,7.17897877970245,1.1651079133153,0.0,,right,silver,0.0,73,2,right,2022_Feb_25_1240,habits_v_MRI,5,40,1,5,30,15,5,15,30,30,60,RR,60.0789107741187
9,0,resp1,stim/right_resp_img.png,"[-0.5, 0]",right,stim/silver_coin.png,silver,,,,,training,,,silver,deval,,,,,0,0,0,0,0.0,0.0,0.0,0.0,0,training_resp,,7.37879538314883,1.36511688667815,0.0,,right,silver,0.0,73,2,right,2022_Feb_25_1240,habits_v_MRI,5,40,1,5,30,15,5,15,30,30,60,RR,60.0789107741187
9,0,resp1,stim/right_resp_img.png,"[-0.5, 0]",right,stim/silver_coin.png,silver,,,,,training,,,silver,deval,,,,,0,0,0,0,0.0,0.0,0.0,0.0,0,training_resp,,8.07901857339311,2.06526881782338,0.0,,right,silver,0.0,73,2,right,2022_Feb_25_1240,habits_v_MRI,5,40,1,5,30,15,5,15,30,30,60,RR,60.0789107741187
9,0,resp1,stim/right_resp_img.png,"[-0.5, 0]",right,stim/silver_coin.png,silver,,,,,training,,,silver,deval,,,,,0,0,0,0,0.0,0.0,0.0,0.0,0,training_resp,,8.76267244003248,2.74869307235349,0.0,,right,silver,0.0,73,2,right,2022_Feb_25_1240,habits_v_MRI,5,40,1,5,30,15,5,15,30,30,60,RR,60.0789107741187
9,0,resp1,stim/right_resp_img.png,"[-0.5, 0]",right,stim/silver_coin.png,silver,,,,,training,,,silver,deval,,,,,0,0,0,0,0.0,0.0,0.0,0.0,0,training_resp,,9.51259069750086,3.4986585425213,0.0,,right,silver,0.0,73,2,right,2022_Feb_25_1240,habits_v_MRI,5,40,1,5,30,15,5,15,30,30,60,RR,60.0789107741187
9,0,resp1,stim/right_resp_img.png,"[-0.5, 0]",right,stim/silver_coin.png,silver,,,,,training,,,silver,deval,,,,,0,0,0,0,0.0,0.0,0.0,0.0,0,training_resp,,10.3125113449059,4.29861232684925,0.0,,right,silver,0.0,73,2,right,2022_Feb_25_1240,habits_v_MRI,5,40,1,5,30,15,5,15,30,30,60,RR,60.0789107741187
9,0,resp1,stim/right_resp_img.png,"[-0.5, 0]",right,stim/silver_coin.png,silver,,,,,training,,,silver,deval,,,,,0,0,0,0,0.0,0.0,0.0,0.0,0,training_resp,,11.0457215732895,5.03183076600544,0.0,,right,silver,0.0,73,2,right,2022_Feb_25_1240,habits_v_MRI,5,40,1,5,30,15,5,15,30,30,60,RR,60.0789107741187
9,0,resp1,stim/right_resp_img.png,"[-0.5, 0]",right,stim/silver_coin.png,silver,,,,,training,,,silver,deval,,,,,0,0,0,0,0.0,0.0,0.0,0.0,0,training_resp,,11.8625405669445,5.84857820754405,0.0,,right,silver,0.0,73,2,right,2022_Feb_25_1240,habits_v_MRI,5,40,1,5,30,15,5,15,30,30,60,RR,60.0789107741187
9,0,resp1,stim/right_resp_img.png,"[-0.5, 0]",right,stim/silver_coin.png,silver,,,,,training,,,silver,deval,,,,,0,0,0,0,0.0,0.0,0.0,0.0,0,training_resp,,12.6459924746305,6.63173276302405,0.0,,right,silver,0.0,73,2,right,2022_Feb_25_1240,habits_v_MRI,5,40,1,5,30,15,5,15,30,30,60,RR,60.0789107741187
9,0,resp1,stim/right_resp_img.png,"[-0.5, 0]",right,stim/silver_coin.png,silver,,,,,training,,,silver,deval,,,,,0,0,0,0,0.0,0.0,0.0,0.0,0,training_resp,,13.3456303442363,7.33168118086178,0.0,,right,silver,0.0,73,2,right,2022_Feb_25_1240,habits_v_MRI,5,40,1,5,30,15,5,15,30,30,60,RR,60.0789107741187
9,0,resp1,stim/right_resp_img.png,"[-0.5, 0]",right,stim/silver_coin.png,silver,,,,,training,,,silver,deval,,,,,0,0,0,0,0.0,0.0,0.0,0.0,0,training_resp,,14.012330147787,7.99839681969024,0.0,16.0,right,silver,1.0,73,2,right,2022_Feb_25_1240,habits_v_MRI,5,40,1,5,30,15,5,15,30,30,60,RR,60.0789107741187
9,0,resp1,stim/right_resp_img.png,"[-0.5, 0]",right,stim/silver_coin.png,silver,,,,,training,,,silver,deval,,,,,0,0,0,0,0.0,0.0,0.0,0.0,0,training_resp,,15.3613131825114,9.34752501174808,0.0,,right,silver,0.0,73,2,right,2022_Feb_25_1240,habits_v_MRI,5,40,1,5,30,15,5,15,30,30,60,RR,60.0789107741187
9,0,resp1,stim/right_resp_img.png,"[-0.5, 0]",right,stim/silver_coin.png,silver,,,,,training,,,silver,deval,,,,,0,0,0,0,0.0,0.0,0.0,0.0,0,training_resp,,16.0956793897785,10.0815935733262,0.0,,right,silver,0.0,73,2,right,2022_Feb_25_1240,habits_v_MRI,5,40,1,5,30,15,5,15,30,30,60,RR,60.0789107741187
9,0,resp1,stim/right_resp_img.png,"[-0.5, 0]",right,stim/silver_coin.png,silver,,,,,training,,,silver,deval,,,,,0,0,0,0,0.0,0.0,0.0,0.0,0,training_resp,,16.7784030776238,10.7643984906608,0.0,,right,silver,0.0,73,2,right,2022_Feb_25_1240,habits_v_MRI,5,40,1,5,30,15,5,15,30,30,60,RR,60.0789107741187
9,0,resp1,stim/right_resp_img.png,"[-0.5, 0]",right,stim/silver_coin.png,silver,,,,,training,,,silver,deval,,,,,0,0,0,0,0.0,0.0,0.0,0.0,0,training_resp,,17.4622927148594,11.4482802101411,0.0,,right,silver,0.0,73,2,right,2022_Feb_25_1240,habits_v_MRI,5,40,1,5,30,15,5,15,30,30,60,RR,60.0789107741187
9,0,resp1,stim/right_resp_img.png,"[-0.5, 0]",right,stim/silver_coin.png,silver,,,,,training,,,silver,deval,,,,,0,0,0,0,0.0,0.0,0.0,0.0,0,training_resp,,18.4289232827723,12.41489083739,0.0,,right,silver,0.0,73,2,right,2022_Feb_25_1240,habits_v_MRI,5,40,1,5,30,15,5,15,30,30,60,RR,60.0789107741187
9,0,resp1,stim/right_resp_img.png,"[-0.5, 0]",right,stim/silver_coin.png,silver,,,,,training,,,silver,deval,,,,,0,0,0,0,0.0,0.0,0.0,0.0,0,training_resp,,19.2788686068961,13.2648481846554,0.0,,right,silver,0.0,73,2,right,2022_Feb_25_1240,habits_v_MRI,5,40,1,5,30,15,5,15,30,30,60,RR,60.0789107741187
9,0,resp1,stim/right_resp_img.png,"[-0.5, 0]",right,stim/silver_coin.png,silver,,,,,training,,,silver,deval,,,,,0,0,0,0,0.0,0.0,0.0,0.0,0,training_resp,,20.0121260479791,13.9980845119571,0.0,,right,silver,0.0,73,2,right,2022_Feb_25_1240,habits_v_MRI,5,40,1,5,30,15,5,15,30,30,60,RR,60.0789107741187
9,0,resp1,stim/right_resp_img.png,"[-0.5, 0]",right,stim/silver_coin.png,silver,,,,,training,,,silver,deval,,,,,0,0,0,0,0.0,0.0,0.0,0.0,0,training_resp,,20.7120949932141,14.6980387946824,0.0,,right,silver,0.0,73,2,right,2022_Feb_25_1240,habits_v_MRI,5,40,1,5,30,15,5,15,30,30,60,RR,60.0789107741187
9,0,resp1,stim/right_resp_img.png,"[-0.5, 0]",right,stim/silver_coin.png,silver,,,,,training,,,silver,deval,,,,,0,0,0,0,0.0,0.0,0.0,0.0,0,training_resp,,21.4289317869116,15.4146943619708,0.0,,right,silver,0.0,73,2,right,2022_Feb_25_1240,habits_v_MRI,5,40,1,5,30,15,5,15,30,30,60,RR,60.0789107741187
9,0,resp1,stim/right_resp_img.png,"[-0.5, 0]",right,stim/silver_coin.png,silver,,,,,training,,,silver,deval,,,,,0,0,0,0,0.0,0.0,0.0,0.0,0,training_resp,,22.1953000163194,16.1812886847183,0.0,,right,silver,0.0,73,2,right,2022_Feb_25_1240,habits_v_MRI,5,40,1,5,30,15,5,15,30,30,60,RR,60.0789107741187
9,0,resp1,stim/right_resp_img.png,"[-0.5, 0]",right,stim/silver_coin.png,silver,,,,,training,,,silver,deval,,,,,0,0,0,0,0.0,0.0,0.0,0.0,0,training_resp,,22.8787447981304,16.8646211529849,0.0,,right,silver,0.0,73,2,right,2022_Feb_25_1240,habits_v_MRI,5,40,1,5,30,15,5,15,30,30,60,RR,60.0789107741187
9,0,resp1,stim/right_resp_img.png,"[-0.5, 0]",right,stim/silver_coin.png,silver,,,,,training,,,silver,deval,,,,,0,0,0,0,0.0,0.0,0.0,0.0,0,training_resp,,23.461894778884,17.4478840337833,0.0,,right,silver,0.0,73,2,right,2022_Feb_25_1240,habits_v_MRI,5,40,1,5,30,15,5,15,30,30,60,RR,60.0789107741187
9,0,resp1,stim/right_resp_img.png,"[-0.5, 0]",right,stim/silver_coin.png,silver,,,,,training,,,silver,deval,,,,,0,0,0,0,0.0,0.0,0.0,0.0,0,training_resp,,24.0786960019032,18.0645697175059,0.0,,right,silver,0.0,73,2,right,2022_Feb_25_1240,habits_v_MRI,5,40,1,5,30,15,5,15,30,30,60,RR,60.0789107741187
9,0,resp1,stim/right_resp_img.png,"[-0.5, 0]",right,stim/silver_coin.png,silver,,,,,training,,,silver,deval,,,,,0,0,0,0,0.0,0.0,0.0,0.0,0,training_resp,,24.6951758263167,18.6811498323223,0.0,,right,silver,0.0,73,2,right,2022_Feb_25_1240,habits_v_MRI,5,40,1,5,30,15,5,15,30,30,60,RR,60.0789107741187
9,0,resp1,stim/right_resp_img.png,"[-0.5, 0]",right,stim/silver_coin.png,silver,,,,,training,,,silver,deval,,,,,0,0,0,0,0.0,0.0,0.0,0.0,0,training_resp,,25.4118302206043,19.3978180092527,0.0,,right,silver,0.0,73,2,right,2022_Feb_25_1240,habits_v_MRI,5,40,1,5,30,15,5,15,30,30,60,RR,60.0789107741187
9,0,resp1,stim/right_resp_img.png,"[-0.5, 0]",right,stim/silver_coin.png,silver,,,,,training,,,silver,deval,,,,,0,0,0,0,0.0,0.0,0.0,0.0,0,training_resp,,26.1117930075852,20.0977843151195,0.0,19.0,right,silver,1.0,73,2,right,2022_Feb_25_1240,habits_v_MRI,5,40,1,5,30,15,5,15,30,30,60,RR,60.0789107741187
9,0,resp1,stim/right_resp_img.png,"[-0.5, 0]",right,stim/silver_coin.png,silver,,,,,training,,,silver,deval,,,,,0,0,0,0,0.0,0.0,0.0,0.0,0,training_resp,,27.1283151182579,21.1142996811541,0.0,,right,silver,0.0,73,2,right,2022_Feb_25_1240,habits_v_MRI,5,40,1,5,30,15,5,15,30,30,60,RR,60.0789107741187
9,0,resp1,stim/right_resp_img.png,"[-0.5, 0]",right,stim/silver_coin.png,silver,,,,,training,,,silver,deval,,,,,0,0,0,0,0.0,0.0,0.0,0.0,0,training_resp,,27.8783055144595,21.8642856786028,0.0,,right,silver,0.0,73,2,right,2022_Feb_25_1240,habits_v_MRI,5,40,1,5,30,15,5,15,30,30,60,RR,60.0789107741187
9,0,resp1,stim/right_resp_img.png,"[-0.5, 0]",right,stim/silver_coin.png,silver,,,,,training,,,silver,deval,,,,,0,0,0,0,0.0,0.0,0.0,0.0,0,training_resp,,28.4949307893403,22.4809080209816,0.0,,right,silver,0.0,73,2,right,2022_Feb_25_1240,habits_v_MRI,5,40,1,5,30,15,5,15,30,30,60,RR,60.0789107741187
9,0,resp1,stim/right_resp_img.png,"[-0.5, 0]",right,stim/silver_coin.png,silver,,,,,training,,,silver,deval,,,,,0,0,0,0,0.0,0.0,0.0,0.0,0,training_resp,,29.1782917025266,23.1642396094976,0.0,,right,silver,0.0,73,2,right,2022_Feb_25_1240,habits_v_MRI,5,40,1,5,30,15,5,15,30,30,60,RR,60.0789107741187
9,0,resp1,stim/right_resp_img.png,"[-0.5, 0]",right,stim/silver_coin.png,silver,,,,,training,,,silver,deval,,,,,0,0,0,0,0.0,0.0,0.0,0.0,0,training_resp,,29.9282199303852,23.91418308625,0.0,,right,silver,0.0,73,2,right,2022_Feb_25_1240,habits_v_MRI,5,40,1,5,30,15,5,15,30,30,60,RR,60.0789107741187
9,0,resp1,stim/right_resp_img.png,"[-0.5, 0]",right,stim/silver_coin.png,silver,,,,,training,,,silver,deval,,,,,0,0,0,0,0.0,0.0,0.0,0.0,0,training_resp,,30.5448352348758,24.5307983907405,0.0,,right,silver,0.0,73,2,right,2022_Feb_25_1240,habits_v_MRI,5,40,1,5,30,15,5,15,30,30,60,RR,60.0789107741187
9,0,resp1,stim/right_resp_img.png,"[-0.5, 0]",right,stim/silver_coin.png,silver,,,,,training,,,silver,deval,,,,,0,0,0,0,0.0,0.0,0.0,0.0,0,training_resp,,31.1117012213217,25.0974799250253,0.0,,right,silver,0.0,73,2,right,2022_Feb_25_1240,habits_v_MRI,5,40,1,5,30,15,5,15,30,30,60,RR,60.0789107741187
9,0,resp1,stim/right_resp_img.png,"[-0.5, 0]",right,stim/silver_coin.png,silver,,,,,training,,,silver,deval,,,,,0,0,0,0,0.0,0.0,0.0,0.0,0,training_resp,,31.6781053441809,25.6640737784328,0.0,,right,silver,0.0,73,2,right,2022_Feb_25_1240,habits_v_MRI,5,40,1,5,30,15,5,15,30,30,60,RR,60.0789107741187
9,0,resp1,stim/right_resp_img.png,"[-0.5, 0]",right,stim/silver_coin.png,silver,,,,,training,,,silver,deval,,,,,0,0,0,0,0.0,0.0,0.0,0.0,0,training_resp,,32.2114127544919,26.1974011296406,0.0,,right,silver,0.0,73,2,right,2022_Feb_25_1240,habits_v_MRI,5,40,1,5,30,15,5,15,30,30,60,RR,60.0789107741187
9,0,resp1,stim/right_resp_img.png,"[-0.5, 0]",right,stim/silver_coin.png,silver,,,,,training,,,silver,deval,,,,,0,0,0,0,0.0,0.0,0.0,0.0,0,training_resp,,32.7780156986555,26.7639929302968,0.0,,right,silver,0.0,73,2,right,2022_Feb_25_1240,habits_v_MRI,5,40,1,5,30,15,5,15,30,30,60,RR,60.0789107741187
9,0,resp1,stim/right_resp_img.png,"[-0.5, 0]",right,stim/silver_coin.png,silver,,,,,training,,,silver,deval,,,,,0,0,0,0,0.0,0.0,0.0,0.0,0,training_resp,,33.2446478795027,27.2306344950339,0.0,,right,silver,0.0,73,2,right,2022_Feb_25_1240,habits_v_MRI,5,40,1,5,30,15,5,15,30,30,60,RR,60.0789107741187
9,0,resp1,stim/right_resp_img.png,"[-0.5, 0]",right,stim/silver_coin.png,silver,,,,,training,,,silver,deval,,,,,0,0,0,0,0.0,0.0,0.0,0.0,0,training_resp,,33.8448698086431,27.8306159619242,0.0,,right,silver,0.0,73,2,right,2022_Feb_25_1240,habits_v_MRI,5,40,1,5,30,15,5,15,30,30,60,RR,60.0789107741187
9,0,resp1,stim/right_resp_img.png,"[-0.5, 0]",right,stim/silver_coin.png,silver,,,,,training,,,silver,deval,,,,,0,0,0,0,0.0,0.0,0.0,0.0,0,training_resp,,34.4946222937433,28.4806004051352,0.0,,right,silver,0.0,73,2,right,2022_Feb_25_1240,habits_v_MRI,5,40,1,5,30,15,5,15,30,30,60,RR,60.0789107741187
9,0,resp1,stim/right_resp_img.png,"[-0.5, 0]",right,stim/silver_coin.png,silver,,,,,training,,,silver,deval,,,,,0,0,0,0,0.0,0.0,0.0,0.0,0,training_resp,,34.944563160534,28.9305503625656,0.0,,right,silver,0.0,73,2,right,2022_Feb_25_1240,habits_v_MRI,5,40,1,5,30,15,5,15,30,30,60,RR,60.0789107741187
9,0,resp1,stim/right_resp_img.png,"[-0.5, 0]",right,stim/silver_coin.png,silver,,,,,training,,,silver,deval,,,,,0,0,0,0,0.0,0.0,0.0,0.0,0,training_resp,,35.4945744944271,29.4805388232926,0.0,,right,silver,0.0,73,2,right,2022_Feb_25_1240,habits_v_MRI,5,40,1,5,30,15,5,15,30,30,60,RR,60.0789107741187
9,0,resp1,stim/right_resp_img.png,"[-0.5, 0]",right,stim/silver_coin.png,silver,,,,,training,,,silver,deval,,,,,0,0,0,0,0.0,0.0,0.0,0.0,0,training_resp,,35.9445197599707,29.9305098945042,0.0,,right,silver,0.0,73,2,right,2022_Feb_25_1240,habits_v_MRI,5,40,1,5,30,15,5,15,30,30,60,RR,60.0789107741187
9,0,resp1,stim/right_resp_img.png,"[-0.5, 0]",right,stim/silver_coin.png,silver,,,,,training,,,silver,deval,,,,,0,0,0,0,0.0,0.0,0.0,0.0,0,training_resp,,36.4277561606141,30.4137521600351,0.0,,right,silver,0.0,73,2,right,2022_Feb_25_1240,habits_v_MRI,5,40,1,5,30,15,5,15,30,30,60,RR,60.0789107741187
9,0,resp1,stim/right_resp_img.png,"[-0.5, 0]",right,stim/silver_coin.png,silver,,,,,training,,,silver,deval,,,,,0,0,0,0,0.0,0.0,0.0,0.0,0,training_resp,,36.9277545476798,30.9137338321889,0.0,,right,silver,0.0,73,2,right,2022_Feb_25_1240,habits_v_MRI,5,40,1,5,30,15,5,15,30,30,60,RR,60.0789107741187
9,0,resp1,stim/right_resp_img.png,"[-0.5, 0]",right,stim/silver_coin.png,silver,,,,,training,,,silver,deval,,,,,0,0,0,0,0.0,0.0,0.0,0.0,0,training_resp,,37.5110576032894,31.4970430459361,0.0,12.0,right,silver,1.0,73,2,right,2022_Feb_25_1240,habits_v_MRI,5,40,1,5,30,15,5,15,30,30,60,RR,60.0789107741187
9,0,resp1,stim/right_resp_img.png,"[-0.5, 0]",right,stim/silver_coin.png,silver,,,,,training,,,silver,deval,,,,,0,0,0,0,0.0,0.0,0.0,0.0,0,training_resp,,38.1777515419526,32.163733465597,0.0,,right,silver,0.0,73,2,right,2022_Feb_25_1240,habits_v_MRI,5,40,1,5,30,15,5,15,30,30,60,RR,60.0789107741187
9,0,resp1,stim/right_resp_img.png,"[-0.5, 0]",right,stim/silver_coin.png,silver,,,,,training,,,silver,deval,,,,,0,0,0,0,0.0,0.0,0.0,0.0,0,training_resp,,38.8609781480627,32.8469454094302,0.0,,right,silver,0.0,73,2,right,2022_Feb_25_1240,habits_v_MRI,5,40,1,5,30,15,5,15,30,30,60,RR,60.0789107741187
9,0,resp1,stim/right_resp_img.png,"[-0.5, 0]",right,stim/silver_coin.png,silver,,,,,training,,,silver,deval,,,,,0,0,0,0,0.0,0.0,0.0,0.0,0,training_resp,,39.3442767170491,33.3302621596958,0.0,,right,silver,0.0,73,2,right,2022_Feb_25_1240,habits_v_MRI,5,40,1,5,30,15,5,15,30,30,60,RR,60.0789107741187
9,0,resp1,stim/right_resp_img.png,"[-0.5, 0]",right,stim/silver_coin.png,silver,,,,,training,,,silver,deval,,,,,0,0,0,0,0.0,0.0,0.0,0.0,0,training_resp,,39.9278275661636,33.9135775315808,0.0,,right,silver,0.0,73,2,right,2022_Feb_25_1240,habits_v_MRI,5,40,1,5,30,15,5,15,30,30,60,RR,60.0789107741187
9,0,resp1,stim/right_resp_img.png,"[-0.5, 0]",right,stim/silver_coin.png,silver,,,,,training,,,silver,deval,,,,,0,0,0,0,0.0,0.0,0.0,0.0,0,training_resp,,40.4608725205762,34.4468500455841,0.0,,right,silver,0.0,73,2,right,2022_Feb_25_1240,habits_v_MRI,5,40,1,5,30,15,5,15,30,30,60,RR,60.0789107741187
9,0,resp1,stim/right_resp_img.png,"[-0.5, 0]",right,stim/silver_coin.png,silver,,,,,training,,,silver,deval,,,,,0,0,0,0,0.0,0.0,0.0,0.0,0,training_resp,,40.8942164988257,34.8801702708006,0.0,,right,silver,0.0,73,2,right,2022_Feb_25_1240,habits_v_MRI,5,40,1,5,30,15,5,15,30,30,60,RR,60.0789107741187
9,0,resp1,stim/right_resp_img.png,"[-0.5, 0]",right,stim/silver_coin.png,silver,,,,,training,,,silver,deval,,,,,0,0,0,0,0.0,0.0,0.0,0.0,0,training_resp,,41.7107988423668,35.6967602387303,0.0,,right,silver,0.0,73,2,right,2022_Feb_25_1240,habits_v_MRI,5,40,1,5,30,15,5,15,30,30,60,RR,60.0789107741187
9,0,resp1,stim/right_resp_img.png,"[-0.5, 0]",right,stim/silver_coin.png,silver,,,,,training,,,silver,deval,,,,,0,0,0,0,0.0,0.0,0.0,0.0,0,training_resp,,42.260739503894,36.2467290519271,0.0,,right,silver,0.0,73,2,right,2022_Feb_25_1240,habits_v_MRI,5,40,1,5,30,15,5,15,30,30,60,RR,60.0789107741187
9,0,resp1,stim/right_resp_img.png,"[-0.5, 0]",right,stim/silver_coin.png,silver,,,,,training,,,silver,deval,,,,,0,0,0,0,0.0,0.0,0.0,0.0,0,training_resp,,42.8107481986517,36.7967307087965,0.0,,right,silver,0.0,73,2,right,2022_Feb_25_1240,habits_v_MRI,5,40,1,5,30,15,5,15,30,30,60,RR,60.0789107741187
9,0,resp1,stim/right_resp_img.png,"[-0.5, 0]",right,stim/silver_coin.png,silver,,,,,training,,,silver,deval,,,,,0,0,0,0,0.0,0.0,0.0,0.0,0,training_resp,,43.3607281552395,37.3467191695236,0.0,,right,silver,0.0,73,2,right,2022_Feb_25_1240,habits_v_MRI,5,40,1,5,30,15,5,15,30,30,60,RR,60.0789107741187
9,0,resp1,stim/right_resp_img.png,"[-0.5, 0]",right,stim/silver_coin.png,silver,,,,,training,,,silver,deval,,,,,0,0,0,0,0.0,0.0,0.0,0.0,0,training_resp,,43.8607491223374,37.8467240080936,0.0,,right,silver,0.0,73,2,right,2022_Feb_25_1240,habits_v_MRI,5,40,1,5,30,15,5,15,30,30,60,RR,60.0789107741187
9,0,resp1,stim/right_resp_img.png,"[-0.5, 0]",right,stim/silver_coin.png,silver,,,,,training,,,silver,deval,,,,,0,0,0,0,0.0,0.0,0.0,0.0,0,training_resp,,44.4106358264107,38.3966212690575,0.0,15.0,right,silver,1.0,73,2,right,2022_Feb_25_1240,habits_v_MRI,5,40,1,5,30,15,5,15,30,30,60,RR,60.0789107741187
9,0,resp1,stim/right_resp_img.png,"[-0.5, 0]",right,stim/silver_coin.png,silver,,,,,training,,,silver,deval,,,,,0,0,0,0,0.0,0.0,0.0,0.0,0,training_resp,,45.3939154809341,39.3798801030498,0.0,,right,silver,0.0,73,2,right,2022_Feb_25_1240,habits_v_MRI,5,40,1,5,30,15,5,15,30,30,60,RR,60.0789107741187
9,0,resp1,stim/right_resp_img.png,"[-0.5, 0]",right,stim/silver_coin.png,silver,,,,,training,,,silver,deval,,,,,0,0,0,0,0.0,0.0,0.0,0.0,0,training_resp,,45.9771880388726,39.9631638043793,0.0,,right,silver,0.0,73,2,right,2022_Feb_25_1240,habits_v_MRI,5,40,1,5,30,15,5,15,30,30,60,RR,60.0789107741187
9,0,resp1,stim/right_resp_img.png,"[-0.5, 0]",right,stim/silver_coin.png,silver,,,,,training,,,silver,deval,,,,,0,0,0,0,0.0,0.0,0.0,0.0,0,training_resp,,46.4605217974167,40.4465113455663,0.0,,right,silver,0.0,73,2,right,2022_Feb_25_1240,habits_v_MRI,5,40,1,5,30,15,5,15,30,30,60,RR,60.0789107741187
9,0,resp1,stim/right_resp_img.png,"[-0.5, 0]",right,stim/silver_coin.png,silver,,,,,training,,,silver,deval,,,,,0,0,0,0,0.0,0.0,0.0,0.0,0,training_resp,,46.8604893056909,40.846475334838,0.0,,right,silver,0.0,73,2,right,2022_Feb_25_1240,habits_v_MRI,5,40,1,5,30,15,5,15,30,30,60,RR,60.0789107741187
9,0,resp1,stim/right_resp_img.png,"[-0.5, 0]",right,stim/silver_coin.png,silver,,,,,training,,,silver,deval,,,,,0,0,0,0,0.0,0.0,0.0,0.0,0,training_resp,,47.3104838366853,41.2964660535799,0.0,,right,silver,0.0,73,2,right,2022_Feb_25_1240,habits_v_MRI,5,40,1,5,30,15,5,15,30,30,60,RR,60.0789107741187
9,0,resp1,stim/right_resp_img.png,"[-0.5, 0]",right,stim/silver_coin.png,silver,,,,,training,,,silver,deval,,,,,0,0,0,0,0.0,0.0,0.0,0.0,0,training_resp,,47.7607012351509,41.7464321395382,0.0,,right,silver,0.0,73,2,right,2022_Feb_25_1240,habits_v_MRI,5,40,1,5,30,15,5,15,30,30,60,RR,60.0789107741187
9,0,resp1,stim/right_resp_img.png,"[-0.5, 0]",right,stim/silver_coin.png,silver,,,,,training,,,silver,deval,,,,,0,0,0,0,0.0,0.0,0.0,0.0,0,training_resp,,48.2437115424546,42.2296849619597,0.0,,right,silver,0.0,73,2,right,2022_Feb_25_1240,habits_v_MRI,5,40,1,5,30,15,5,15,30,30,60,RR,60.0789107741187
9,0,resp1,stim/right_resp_img.png,"[-0.5, 0]",right,stim/silver_coin.png,silver,,,,,training,,,silver,deval,,,,,0,0,0,0,0.0,0.0,0.0,0.0,0,training_resp,,48.7107050033519,42.6964042370673,0.0,,right,silver,0.0,73,2,right,2022_Feb_25_1240,habits_v_MRI,5,40,1,5,30,15,5,15,30,30,60,RR,60.0789107741187
9,0,resp1,stim/right_resp_img.png,"[-0.5, 0]",right,stim/silver_coin.png,silver,,,,,training,,,silver,deval,,,,,0,0,0,0,0.0,0.0,0.0,0.0,0,training_resp,,49.1936587140663,43.1796418107115,0.0,,right,silver,0.0,73,2,right,2022_Feb_25_1240,habits_v_MRI,5,40,1,5,30,15,5,15,30,30,60,RR,60.0789107741187
9,0,resp1,stim/right_resp_img.png,"[-0.5, 0]",right,stim/silver_coin.png,silver,,,,,training,,,silver,deval,,,,,0,0,0,0,0.0,0.0,0.0,0.0,0,training_resp,,50.0270845667692,44.0130339399911,0.0,,right,silver,0.0,73,2,right,2022_Feb_25_1240,habits_v_MRI,5,40,1,5,30,15,5,15,30,30,60,RR,60.0789107741187
9,0,resp1,stim/right_resp_img.png,"[-0.5, 0]",right,stim/silver_coin.png,silver,,,,,training,,,silver,deval,,,,,0,0,0,0,0.0,0.0,0.0,0.0,0,training_resp,,50.8936625556089,44.8796286439756,0.0,,right,silver,0.0,73,2,right,2022_Feb_25_1240,habits_v_MRI,5,40,1,5,30,15,5,15,30,30,60,RR,60.0789107741187
9,0,resp1,stim/right_resp_img.png,"[-0.5, 0]",right,stim/silver_coin.png,silver,,,,,training,,,silver,deval,,,,,0,0,0,0,0.0,0.0,0.0,0.0,0,training_resp,,51.4435794641031,45.4295602147468,0.0,,right,silver,0.0,73,2,right,2022_Feb_25_1240,habits_v_MRI,5,40,1,5,30,15,5,15,30,30,60,RR,60.0789107741187
9,0,resp1,stim/right_resp_img.png,"[-0.5, 0]",right,stim/silver_coin.png,silver,,,,,training,,,silver,deval,,,,,0,0,0,0,0.0,0.0,0.0,0.0,0,training_resp,,51.9768223601859,45.9627954864409,0.0,,right,silver,0.0,73,2,right,2022_Feb_25_1240,habits_v_MRI,5,40,1,5,30,15,5,15,30,30,60,RR,60.0789107741187
9,0,resp1,stim/right_resp_img.png,"[-0.5, 0]",right,stim/silver_coin.png,silver,,,,,training,,,silver,deval,,,,,0,0,0,0,0.0,0.0,0.0,0.0,0,training_resp,,52.4267491510836,46.4127413383685,0.0,,right,silver,0.0,73,2,right,2022_Feb_25_1240,habits_v_MRI,5,40,1,5,30,15,5,15,30,30,60,RR,60.0789107741187
9,0,resp1,stim/right_resp_img.png,"[-0.5, 0]",right,stim/silver_coin.png,silver,,,,,training,,,silver,deval,,,,,0,0,0,0,0.0,0.0,0.0,0.0,0,training_resp,,52.9101371603319,46.896104421583,0.0,13.0,right,silver,1.0,73,2,right,2022_Feb_25_1240,habits_v_MRI,5,40,1,5,30,15,5,15,30,30,60,RR,60.0789107741187
9,0,resp1,stim/right_resp_img.png,"[-0.5, 0]",right,stim/silver_coin.png,silver,,,,,training,,,silver,deval,,,,,0,0,0,0,0.0,0.0,0.0,0.0,0,training_resp,,53.8934871939709,47.8794348078081,0.0,,right,silver,0.0,73,2,right,2022_Feb_25_1240,habits_v_MRI,5,40,1,5,30,15,5,15,30,30,60,RR,60.0789107741187
9,0,resp1,stim/right_resp_img.png,"[-0.5, 0]",right,stim/silver_coin.png,silver,,,,,training,,,silver,deval,,,,,0,0,0,0,0.0,0.0,0.0,0.0,0,training_resp,,54.4100716196699,48.3960083832499,0.0,,right,silver,0.0,73,2,right,2022_Feb_25_1240,habits_v_MRI,5,40,1,5,30,15,5,15,30,30,60,RR,60.0789107741187
9,0,resp1,stim/right_resp_img.png,"[-0.5, 0]",right,stim/silver_coin.png,silver,,,,,training,,,silver,deval,,,,,0,0,0,0,0.0,0.0,0.0,0.0,0,training_resp,,54.9434221371776,48.9293879322941,0.0,,right,silver,0.0,73,2,right,2022_Feb_25_1240,habits_v_MRI,5,40,1,5,30,15,5,15,30,30,60,RR,60.0789107741187
9,0,resp1,stim/right_resp_img.png,"[-0.5, 0]",right,stim/silver_coin.png,silver,,,,,training,,,silver,deval,,,,,0,0,0,0,0.0,0.0,0.0,0.0,0,training_resp,,55.3933624174679,49.3793487398652,0.0,,right,silver,0.0,73,2,right,2022_Feb_25_1240,habits_v_MRI,5,40,1,5,30,15,5,15,30,30,60,RR,60.0789107741187
9,0,resp1,stim/right_resp_img.png,"[-0.5, 0]",right,stim/silver_coin.png,silver,,,,,training,,,silver,deval,,,,,0,0,0,0,0.0,0.0,0.0,0.0,0,training_resp,,55.893252010108,49.8792081280844,0.0,,right,silver,0.0,73,2,right,2022_Feb_25_1240,habits_v_MRI,5,40,1,5,30,15,5,15,30,30,60,RR,60.0789107741187
9,0,resp1,stim/right_resp_img.png,"[-0.5, 0]",right,stim/silver_coin.png,silver,,,,,training,,,silver,deval,,,,,0,0,0,0,0.0,0.0,0.0,0.0,0,training_resp,,56.3599753907183,50.3459529156098,0.0,,right,silver,0.0,73,2,right,2022_Feb_25_1240,habits_v_MRI,5,40,1,5,30,15,5,15,30,30,60,RR,60.0789107741187
9,0,resp1,stim/right_resp_img.png,"[-0.5, 0]",right,stim/silver_coin.png,silver,,,,,training,,,silver,deval,,,,,0,0,0,0,0.0,0.0,0.0,0.0,0,training_resp,,56.7599047768163,50.7458761436865,0.0,,right,silver,0.0,73,2,right,2022_Feb_25_1240,habits_v_MRI,5,40,1,5,30,15,5,15,30,30,60,RR,60.0789107741187
9,0,resp1,stim/right_resp_img.png,"[-0.5, 0]",right,stim/silver_coin.png,silver,,,,,training,,,silver,deval,,,,,0,0,0,0,0.0,0.0,0.0,0.0,0,training_resp,,57.1931927449768,51.1791708563687,0.0,,right,silver,0.0,73,2,right,2022_Feb_25_1240,habits_v_MRI,5,40,1,5,30,15,5,15,30,30,60,RR,60.0789107741187
9,0,resp1,stim/right_resp_img.png,"[-0.5, 0]",right,stim/silver_coin.png,silver,,,,,training,,,silver,deval,,,,,0,0,0,0,0.0,0.0,0.0,0.0,0,training_resp,,57.6265651680296,51.6124943073373,0.0,,right,silver,0.0,73,2,right,2022_Feb_25_1240,habits_v_MRI,5,40,1,5,30,15,5,15,30,30,60,RR,60.0789107741187
9,0,resp1,stim/right_resp_img.png,"[-0.5, 0]",right,stim/silver_coin.png,silver,,,,,training,,,silver,deval,,,,,0,0,0,0,0.0,0.0,0.0,0.0,0,training_resp,,58.1098426232347,52.095819854876,0.0,,right,silver,0.0,73,2,right,2022_Feb_25_1240,habits_v_MRI,5,40,1,5,30,15,5,15,30,30,60,RR,60.0789107741187
9,0,resp1,stim/right_resp_img.png,"[-0.5, 0]",right,stim/silver_coin.png,silver,,,,,training,,,silver,deval,,,,,0,0,0,0,0.0,0.0,0.0,0.0,0,ITI_start,30.0,58.2110828518635,52.1957712639123,,,,,,73,2,right,2022_Feb_25_1240,habits_v_MRI,5,40,1,5,30,15,5,15,30,30,60,RR,60.0789107741187
9,1,resp2,stim/left_resp_img.png,"[0.5, 0]",left,stim/gold_coin.png,silver,,,,,training,,,gold,val,,,,,0,0,0,0,0.0,1.0,1.0,1.0,0,training_period_start,45.0,88.2464164508274,0.0,1.0,14.0,,,,73,2,right,2022_Feb_25_1240,habits_v_MRI,5,40,1,5,30,15,5,15,30,30,60,RR,60.0789107741187
9,1,resp2,stim/left_resp_img.png,"[0.5, 0]",left,stim/gold_coin.png,silver,,,,,training,,,gold,val,,,,,0,0,0,0,0.0,1.0,1.0,1.0,0,training_resp,,89.608480345225,1.38154603808653,1.0,,left,gold,0.0,73,2,right,2022_Feb_25_1240,habits_v_MRI,5,40,1,5,30,15,5,15,30,30,60,RR,60.0789107741187
9,1,resp2,stim/left_resp_img.png,"[0.5, 0]",left,stim/gold_coin.png,silver,,,,,training,,,gold,val,,,,,0,0,0,0,0.0,1.0,1.0,1.0,0,training_resp,,90.1745322786737,1.94819091656245,1.0,,left,gold,0.0,73,2,right,2022_Feb_25_1240,habits_v_MRI,5,40,1,5,30,15,5,15,30,30,60,RR,60.0789107741187
9,1,resp2,stim/left_resp_img.png,"[0.5, 0]",left,stim/gold_coin.png,silver,,,,,training,,,gold,val,,,,,0,0,0,0,0.0,1.0,1.0,1.0,0,training_resp,,90.6578548938269,2.43151059921365,1.0,,left,gold,0.0,73,2,right,2022_Feb_25_1240,habits_v_MRI,5,40,1,5,30,15,5,15,30,30,60,RR,60.0789107741187
9,1,resp2,stim/left_resp_img.png,"[0.5, 0]",left,stim/gold_coin.png,silver,,,,,training,,,gold,val,,,,,0,0,0,0,0.0,1.0,1.0,1.0,0,training_resp,,91.1244639081415,2.89812665141653,1.0,,left,gold,0.0,73,2,right,2022_Feb_25_1240,habits_v_MRI,5,40,1,5,30,15,5,15,30,30,60,RR,60.0789107741187
9,1,resp2,stim/left_resp_img.png,"[0.5, 0]",left,stim/gold_coin.png,silver,,,,,training,,,gold,val,,,,,0,0,0,0,0.0,1.0,1.0,1.0,0,training_resp,,91.5577463045483,3.33137473801617,1.0,,left,gold,0.0,73,2,right,2022_Feb_25_1240,habits_v_MRI,5,40,1,5,30,15,5,15,30,30,60,RR,60.0789107741187
9,1,resp2,stim/left_resp_img.png,"[0.5, 0]",left,stim/gold_coin.png,silver,,,,,training,,,gold,val,,,,,0,0,0,0,0.0,1.0,1.0,1.0,0,training_resp,,92.0411888576346,3.81474309961777,1.0,,left,gold,0.0,73,2,right,2022_Feb_25_1240,habits_v_MRI,5,40,1,5,30,15,5,15,30,30,60,RR,60.0789107741187
9,1,resp2,stim/left_resp_img.png,"[0.5, 0]",left,stim/gold_coin.png,silver,,,,,training,,,gold,val,,,,,0,0,0,0,0.0,1.0,1.0,1.0,0,training_resp,,92.507706672186,4.28137058857828,1.0,,left,gold,0.0,73,2,right,2022_Feb_25_1240,habits_v_MRI,5,40,1,5,30,15,5,15,30,30,60,RR,60.0789107741187
9,1,resp2,stim/left_resp_img.png,"[0.5, 0]",left,stim/gold_coin.png,silver,,,,,training,,,gold,val,,,,,0,0,0,0,0.0,1.0,1.0,1.0,0,training_resp,,92.9912917432375,4.76472985954024,1.0,,left,gold,0.0,73,2,right,2022_Feb_25_1240,habits_v_MRI,5,40,1,5,30,15,5,15,30,30,60,RR,60.0789107741187
9,1,resp2,stim/left_resp_img.png,"[0.5, 0]",left,stim/gold_coin.png,silver,,,,,training,,,gold,val,,,,,0,0,0,0,0.0,1.0,1.0,1.0,0,training_resp,,93.4743524891092,5.24800790112931,1.0,,left,gold,0.0,73,2,right,2022_Feb_25_1240,habits_v_MRI,5,40,1,5,30,15,5,15,30,30,60,RR,60.0789107741187
9,1,resp2,stim/left_resp_img.png,"[0.5, 0]",left,stim/gold_coin.png,silver,,,,,training,,,gold,val,,,,,0,0,0,0,0.0,1.0,1.0,1.0,0,training_resp,,93.9743329881458,5.74799543817062,1.0,,left,gold,0.0,73,2,right,2022_Feb_25_1240,habits_v_MRI,5,40,1,5,30,15,5,15,30,30,60,RR,60.0789107741187
9,1,resp2,stim/left_resp_img.png,"[0.5, 0]",left,stim/gold_coin.png,silver,,,,,training,,,gold,val,,,,,0,0,0,0,0.0,1.0,1.0,1.0,0,training_resp,,94.4409431754611,6.21459330921061,1.0,,left,gold,0.0,73,2,right,2022_Feb_25_1240,habits_v_MRI,5,40,1,5,30,15,5,15,30,30,60,RR,60.0789107741187
9,1,resp2,stim/left_resp_img.png,"[0.5, 0]",left,stim/gold_coin.png,silver,,,,,training,,,gold,val,,,,,0,0,0,0,0.0,1.0,1.0,1.0,0,training_resp,,94.9575278942939,6.73118565243203,1.0,,left,gold,0.0,73,2,right,2022_Feb_25_1240,habits_v_MRI,5,40,1,5,30,15,5,15,30,30,60,RR,60.0789107741187
9,1,resp2,stim/left_resp_img.png,"[0.5, 0]",left,stim/gold_coin.png,silver,,,,,training,,,gold,val,,,,,0,0,0,0,0.0,1.0,1.0,1.0,0,training_resp,,95.3742834881414,7.1479101619916,1.0,,left,gold,0.0,73,2,right,2022_Feb_25_1240,habits_v_MRI,5,40,1,5,30,15,5,15,30,30,60,RR,60.0789107741187
9,1,resp2,stim/left_resp_img.png,"[0.5, 0]",left,stim/gold_coin.png,silver,,,,,training,,,gold,val,,,,,0,0,0,0,0.0,1.0,1.0,1.0,0,training_resp,,95.7908417267026,7.56449449970387,1.0,11.0,left,gold,1.0,73,2,right,2022_Feb_25_1240,habits_v_MRI,5,40,1,5,30,15,5,15,30,30,60,RR,60.0789107741187
9,1,resp2,stim/left_resp_img.png,"[0.5, 0]",left,stim/gold_coin.png,silver,,,,,training,,,gold,val,,,,,0,0,0,0,0.0,1.0,1.0,1.0,0,training_resp,,96.390783312032,8.16444400255568,1.0,,left,gold,0.0,73,2,right,2022_Feb_25_1240,habits_v_MRI,5,40,1,5,30,15,5,15,30,30,60,RR,60.0789107741187
9,1,resp2,stim/left_resp_img.png,"[0.5, 0]",left,stim/gold_coin.png,silver,,,,,training,,,gold,val,,,,,0,0,0,0,0.0,1.0,1.0,1.0,0,training_resp,,96.7907857166138,8.56443907599896,1.0,,left,gold,0.0,73,2,right,2022_Feb_25_1240,habits_v_MRI,5,40,1,5,30,15,5,15,30,30,60,RR,60.0789107741187
9,1,resp2,stim/left_resp_img.png,"[0.5, 0]",left,stim/gold_coin.png,silver,,,,,training,,,gold,val,,,,,0,0,0,0,0.0,1.0,1.0,1.0,0,training_resp,,97.2407746758545,9.01443477999419,1.0,,left,gold,0.0,73,2,right,2022_Feb_25_1240,habits_v_MRI,5,40,1,5,30,15,5,15,30,30,60,RR,60.0789107741187
9,1,resp2,stim/left_resp_img.png,"[0.5, 0]",left,stim/gold_coin.png,silver,,,,,training,,,gold,val,,,,,0,0,0,0,0.0,1.0,1.0,1.0,0,training_resp,,97.6407459963812,9.41439437051304,1.0,,left,gold,0.0,73,2,right,2022_Feb_25_1240,habits_v_MRI,5,40,1,5,30,15,5,15,30,30,60,RR,60.0789107741187
9,1,resp2,stim/left_resp_img.png,"[0.5, 0]",left,stim/gold_coin.png,silver,,,,,training,,,gold,val,,,,,0,0,0,0,0.0,1.0,1.0,1.0,0,training_resp,,98.0574573097983,9.8311012852937,1.0,,left,gold,0.0,73,2,right,2022_Feb_25_1240,habits_v_MRI,5,40,1,5,30,15,5,15,30,30,60,RR,60.0789107741187
9,1,resp2,stim/left_resp_img.png,"[0.5, 0]",left,stim/gold_coin.png,silver,,,,,training,,,gold,val,,,,,0,0,0,0,0.0,1.0,1.0,1.0,0,training_resp,,98.457366461982,10.2310198213672,1.0,,left,gold,0.0,73,2,right,2022_Feb_25_1240,habits_v_MRI,5,40,1,5,30,15,5,15,30,30,60,RR,60.0789107741187
9,1,resp2,stim/left_resp_img.png,"[0.5, 0]",left,stim/gold_coin.png,silver,,,,,training,,,gold,val,,,,,0,0,0,0,0.0,1.0,1.0,1.0,0,training_resp,,98.8406502805883,10.6143191821175,1.0,,left,gold,0.0,73,2,right,2022_Feb_25_1240,habits_v_MRI,5,40,1,5,30,15,5,15,30,30,60,RR,60.0789107741187
9,1,resp2,stim/left_resp_img.png,"[0.5, 0]",left,stim/gold_coin.png,silver,,,,,training,,,gold,val,,,,,0,0,0,0,0.0,1.0,1.0,1.0,0,training_resp,,99.2572994257789,11.0309627555544,1.0,,left,gold,0.0,73,2,right,2022_Feb_25_1240,habits_v_MRI,5,40,1,5,30,15,5,15,30,30,60,RR,60.0789107741187
9,1,resp2,stim/left_resp_img.png,"[0.5, 0]",left,stim/gold_coin.png,silver,,,,,training,,,gold,val,,,,,0,0,0,0,0.0,1.0,1.0,1.0,0,training_resp,,99.6572505121585,11.4308889160166,1.0,,left,gold,0.0,73,2,right,2022_Feb_25_1240,habits_v_MRI,5,40,1,5,30,15,5,15,30,30,60,RR,60.0789107741187
9,1,resp2,stim/left_resp_img.png,"[0.5, 0]",left,stim/gold_coin.png,silver,,,,,training,,,gold,val,,,,,0,0,0,0,0.0,1.0,1.0,1.0,0,training_resp,,100.057293091668,11.8309373604134,1.0,,left,gold,0.0,73,2,right,2022_Feb_25_1240,habits_v_MRI,5,40,1,5,30,15,5,15,30,30,60,RR,60.0789107741187
9,1,resp2,stim/left_resp_img.png,"[0.5, 0]",left,stim/gold_coin.png,silver,,,,,training,,,gold,val,,,,,0,0,0,0,0.0,1.0,1.0,1.0,0,training_resp,,100.423963599838,12.197627222864,1.0,14.0,left,gold,1.0,73,2,right,2022_Feb_25_1240,habits_v_MRI,5,40,1,5,30,15,5,15,30,30,60,RR,60.0789107741187
9,1,resp2,stim/left_resp_img.png,"[0.5, 0]",left,stim/gold_coin.png,silver,,,,,training,,,gold,val,,,,,0,0,0,0,0.0,1.0,1.0,1.0,0,training_resp,,101.123874775367,12.8975366388913,1.0,,left,gold,0.0,73,2,right,2022_Feb_25_1240,habits_v_MRI,5,40,1,5,30,15,5,15,30,30,60,RR,60.0789107741187
9,1,resp2,stim/left_resp_img.png,"[0.5, 0]",left,stim/gold_coin.png,silver,,,,,training,,,gold,val,,,,,0,0,0,0,0.0,1.0,1.0,1.0,0,training_resp,,101.44051356893,13.2141722068191,1.0,,left,gold,0.0,73,2,right,2022_Feb_25_1240,habits_v_MRI,5,40,1,5,30,15,5,15,30,30,60,RR,60.0789107741187
9,1,resp2,stim/left_resp_img.png,"[0.5, 0]",left,stim/gold_coin.png,silver,,,,,training,,,gold,val,,,,,0,0,0,0,0.0,1.0,1.0,1.0,0,training_resp,,101.740496531245,13.514146958245,1.0,,left,gold,0.0,73,2,right,2022_Feb_25_1240,habits_v_MRI,5,40,1,5,30,15,5,15,30,30,60,RR,60.0789107741187
9,1,resp2,stim/left_resp_img.png,"[0.5, 0]",left,stim/gold_coin.png,silver,,,,,training,,,gold,val,,,,,0,0,0,0,0.0,1.0,1.0,1.0,0,training_resp,,102.057172567234,13.8308367767604,1.0,,left,gold,0.0,73,2,right,2022_Feb_25_1240,habits_v_MRI,5,40,1,5,30,15,5,15,30,30,60,RR,60.0789107741187
9,1,resp2,stim/left_resp_img.png,"[0.5, 0]",left,stim/gold_coin.png,silver,,,,,training,,,gold,val,,,,,0,0,0,0,0.0,1.0,1.0,1.0,0,training_resp,,102.390417633229,14.1640777373686,1.0,,left,gold,0.0,73,2,right,2022_Feb_25_1240,habits_v_MRI,5,40,1,5,30,15,5,15,30,30,60,RR,60.0789107741187
9,1,resp2,stim/left_resp_img.png,"[0.5, 0]",left,stim/gold_coin.png,silver,,,,,training,,,gold,val,,,,,0,0,0,0,0.0,1.0,1.0,1.0,0,training_resp,,102.690395317157,14.4640589401824,1.0,,left,gold,0.0,73,2,right,2022_Feb_25_1240,habits_v_MRI,5,40,1,5,30,15,5,15,30,30,60,RR,60.0789107741187
9,1,resp2,stim/left_resp_img.png,"[0.5, 0]",left,stim/gold_coin.png,silver,,,,,training,,,gold,val,,,,,0,0,0,0,0.0,1.0,1.0,1.0,0,training_resp,,103.007392165018,14.7808267623186,1.0,,left,gold,0.0,73,2,right,2022_Feb_25_1240,habits_v_MRI,5,40,1,5,30,15,5,15,30,30,60,RR,60.0789107741187
9,1,resp2,stim/left_resp_img.png,"[0.5, 0]",left,stim/gold_coin.png,silver,,,,,training,,,gold,val,,,,,0,0,0,0,0.0,1.0,1.0,1.0,0,training_resp,,103.323703695205,15.0973731831182,1.0,,left,gold,0.0,73,2,right,2022_Feb_25_1240,habits_v_MRI,5,40,1,5,30,15,5,15,30,30,60,RR,60.0789107741187
9,1,resp2,stim/left_resp_img.png,"[0.5, 0]",left,stim/gold_coin.png,silver,,,,,training,,,gold,val,,,,,0,0,0,0,0.0,1.0,1.0,1.0,0,training_resp,,103.640352752409,15.4140055252938,1.0,,left,gold,0.0,73,2,right,2022_Feb_25_1240,habits_v_MRI,5,40,1,5,30,15,5,15,30,30,60,RR,60.0789107741187
9,1,resp2,stim/left_resp_img.png,"[0.5, 0]",left,stim/gold_coin.png,silver,,,,,training,,,gold,val,,,,,0,0,0,0,0.0,1.0,1.0,1.0,0,training_resp,,104.007069886778,15.7807235395303,1.0,,left,gold,0.0,73,2,right,2022_Feb_25_1240,habits_v_MRI,5,40,1,5,30,15,5,15,30,30,60,RR,60.0789107741187
9,1,resp2,stim/left_resp_img.png,"[0.5, 0]",left,stim/gold_coin.png,silver,,,,,training,,,gold,val,,,,,0,0,0,0,0.0,1.0,1.0,1.0,0,training_resp,,104.273705997155,16.0473672742955,1.0,,left,gold,0.0,73,2,right,2022_Feb_25_1240,habits_v_MRI,5,40,1,5,30,15,5,15,30,30,60,RR,60.0789107741187
9,1,resp2,stim/left_resp_img.png,"[0.5, 0]",left,stim/gold_coin.png,silver,,,,,training,,,gold,val,,,,,0,0,0,0,0.0,1.0,1.0,1.0,0,training_resp,,104.623721260694,16.3973388440209,1.0,,left,gold,0.0,73,2,right,2022_Feb_25_1240,habits_v_MRI,5,40,1,5,30,15,5,15,30,30,60,RR,60.0789107741187
9,1,resp2,stim/left_resp_img.png,"[0.5, 0]",left,stim/gold_coin.png,silver,,,,,training,,,gold,val,,,,,0,0,0,0,0.0,1.0,1.0,1.0,0,training_resp,,104.923633257276,16.697296880302,1.0,,left,gold,0.0,73,2,right,2022_Feb_25_1240,habits_v_MRI,5,40,1,5,30,15,5,15,30,30,60,RR,60.0789107741187
9,1,resp2,stim/left_resp_img.png,"[0.5, 0]",left,stim/gold_coin.png,silver,,,,,training,,,gold,val,,,,,0,0,0,0,0.0,1.0,1.0,1.0,0,training_resp,,105.257081836695,17.0306695087347,1.0,20.0,left,gold,1.0,73,2,right,2022_Feb_25_1240,habits_v_MRI,5,40,1,5,30,15,5,15,30,30,60,RR,60.0789107741187
9,1,resp2,stim/left_resp_img.png,"[0.5, 0]",left,stim/gold_coin.png,silver,,,,,training,,,gold,val,,,,,0,0,0,0,0.0,1.0,1.0,1.0,0,training_resp,,105.890251508914,17.66391571844,1.0,,left,gold,0.0,73,2,right,2022_Feb_25_1240,habits_v_MRI,5,40,1,5,30,15,5,15,30,30,60,RR,60.0789107741187
9,1,resp2,stim/left_resp_img.png,"[0.5, 0]",left,stim/gold_coin.png,silver,,,,,training,,,gold,val,,,,,0,0,0,0,0.0,1.0,1.0,1.0,0,training_resp,,106.206933703041,17.9806014315691,1.0,,left,gold,0.0,73,2,right,2022_Feb_25_1240,habits_v_MRI,5,40,1,5,30,15,5,15,30,30,60,RR,60.0789107741187
9,1,resp2,stim/left_resp_img.png,"[0.5, 0]",left,stim/gold_coin.png,silver,,,,,training,,,gold,val,,,,,0,0,0,0,0.0,1.0,1.0,1.0,0,training_resp,,106.523517072899,18.2971607551444,1.0,,left,gold,0.0,73,2,right,2022_Feb_25_1240,habits_v_MRI,5,40,1,5,30,15,5,15,30,30,60,RR,60.0789107741187
9,1,resp2,stim/left_resp_img.png,"[0.5, 0]",left,stim/gold_coin.png,silver,,,,,training,,,gold,val,,,,,0,0,0,0,0.0,1.0,1.0,1.0,0,training_resp,,106.806872355752,18.5805386180291,1.0,,left,gold,0.0,73,2,right,2022_Feb_25_1240,habits_v_MRI,5,40,1,5,30,15,5,15,30,30,60,RR,60.0789107741187
9,1,resp2,stim/left_resp_img.png,"[0.5, 0]",left,stim/gold_coin.png,silver,,,,,training,,,gold,val,,,,,0,0,0,0,0.0,1.0,1.0,1.0,0,training_resp,,107.090177200153,18.863838477293,1.0,,left,gold,0.0,73,2,right,2022_Feb_25_1240,habits_v_MRI,5,40,1,5,30,15,5,15,30,30,60,RR,60.0789107741187
9,1,resp2,stim/left_resp_img.png,"[0.5, 0]",left,stim/gold_coin.png,silver,,,,,training,,,gold,val,,,,,0,0,0,0,0.0,1.0,1.0,1.0,0,training_resp,,107.390372473281,19.1638161612209,1.0,,left,gold,0.0,73,2,right,2022_Feb_25_1240,habits_v_MRI,5,40,1,5,30,15,5,15,30,30,60,RR,60.0789107741187
9,1,resp2,stim/left_resp_img.png,"[0.5, 0]",left,stim/gold_coin.png,silver,,,,,training,,,gold,val,,,,,0,0,0,0,0.0,1.0,1.0,1.0,0,training_resp,,107.706784880254,19.480437359889,1.0,,left,gold,0.0,73,2,right,2022_Feb_25_1240,habits_v_MRI,5,40,1,5,30,15,5,15,30,30,60,RR,60.0789107741187
9,1,resp2,stim/left_resp_img.png,"[0.5, 0]",left,stim/gold_coin.png,silver,,,,,training,,,gold,val,,,,,0,0,0,0,0.0,1.0,1.0,1.0,0,training_resp,,108.07343427476,19.8470943787834,1.0,,left,gold,0.0,73,2,right,2022_Feb_25_1240,habits_v_MRI,5,40,1,5,30,15,5,15,30,30,60,RR,60.0789107741187
9,1,resp2,stim/left_resp_img.png,"[0.5, 0]",left,stim/gold_coin.png,silver,,,,,training,,,gold,val,,,,,0,0,0,0,0.0,1.0,1.0,1.0,0,training_resp,,108.340125222225,20.1137944168877,1.0,,left,gold,0.0,73,2,right,2022_Feb_25_1240,habits_v_MRI,5,40,1,5,30,15,5,15,30,30,60,RR,60.0789107741187
9,1,resp2,stim/left_resp_img.png,"[0.5, 0]",left,stim/gold_coin.png,silver,,,,,training,,,gold,val,,,,,0,0,0,0,0.0,1.0,1.0,1.0,0,training_resp,,108.673548582359,20.4470811240608,1.0,,left,gold,0.0,73,2,right,2022_Feb_25_1240,habits_v_MRI,5,40,1,5,30,15,5,15,30,30,60,RR,60.0789107741187
9,1,resp2,stim/left_resp_img.png,"[0.5, 0]",left,stim/gold_coin.png,silver,,,,,training,,,gold,val,,,,,0,0,0,0,0.0,1.0,1.0,1.0,0,training_resp,,108.956768971635,20.730388021213,1.0,,left,gold,0.0,73,2,right,2022_Feb_25_1240,habits_v_MRI,5,40,1,5,30,15,5,15,30,30,60,RR,60.0789107741187
9,1,resp2,stim/left_resp_img.png,"[0.5, 0]",left,stim/gold_coin.png,silver,,,,,training,,,gold,val,,,,,0,0,0,0,0.0,1.0,1.0,1.0,0,training_resp,,109.256781845121,21.0303539752495,1.0,,left,gold,0.0,73,2,right,2022_Feb_25_1240,habits_v_MRI,5,40,1,5,30,15,5,15,30,30,60,RR,60.0789107741187
9,1,resp2,stim/left_resp_img.png,"[0.5, 0]",left,stim/gold_coin.png,silver,,,,,training,,,gold,val,,,,,0,0,0,0,0.0,1.0,1.0,1.0,0,training_resp,,109.540077598882,21.3137057390995,1.0,,left,gold,0.0,73,2,right,2022_Feb_25_1240,habits_v_MRI,5,40,1,5,30,15,5,15,30,30,60,RR,60.0789107741187
9,1,resp2,stim/left_resp_img.png,"[0.5, 0]",left,stim/gold_coin.png,silver,,,,,training,,,gold,val,,,,,0,0,0,0,0.0,1.0,1.0,1.0,0,training_resp,,109.823361622868,21.5970138092525,1.0,,left,gold,0.0,73,2,right,2022_Feb_25_1240,habits_v_MRI,5,40,1,5,30,15,5,15,30,30,60,RR,60.0789107741187
9,1,resp2,stim/left_resp_img.png,"[0.5, 0]",left,stim/gold_coin.png,silver,,,,,training,,,gold,val,,,,,0,0,0,0,0.0,1.0,1.0,1.0,0,training_resp,,110.09003849444,21.8637012377148,1.0,,left,gold,0.0,73,2,right,2022_Feb_25_1240,habits_v_MRI,5,40,1,5,30,15,5,15,30,30,60,RR,60.0789107741187
9,1,resp2,stim/left_resp_img.png,"[0.5, 0]",left,stim/gold_coin.png,silver,,,,,training,,,gold,val,,,,,0,0,0,0,0.0,1.0,1.0,1.0,0,training_resp,,110.389982161811,22.1636475443374,1.0,,left,gold,0.0,73,2,right,2022_Feb_25_1240,habits_v_MRI,5,40,1,5,30,15,5,15,30,30,60,RR,60.0789107741187
9,1,resp2,stim/left_resp_img.png,"[0.5, 0]",left,stim/gold_coin.png,silver,,,,,training,,,gold,val,,,,,0,0,0,0,0.0,1.0,1.0,1.0,0,training_resp,,110.67330430774,22.4469623591285,1.0,,left,gold,0.0,73,2,right,2022_Feb_25_1240,habits_v_MRI,5,40,1,5,30,15,5,15,30,30,60,RR,60.0789107741187
9,1,resp2,stim/left_resp_img.png,"[0.5, 0]",left,stim/gold_coin.png,silver,,,,,training,,,gold,val,,,,,0,0,0,0,0.0,1.0,1.0,1.0,0,training_resp,,110.973281991668,22.7469453214435,1.0,,left,gold,0.0,73,2,right,2022_Feb_25_1240,habits_v_MRI,5,40,1,5,30,15,5,15,30,30,60,RR,60.0789107741187
9,1,resp2,stim/left_resp_img.png,"[0.5, 0]",left,stim/gold_coin.png,silver,,,,,training,,,gold,val,,,,,0,0,0,0,0.0,1.0,1.0,1.0,0,training_resp,,111.289962426294,23.0636219438165,1.0,,left,gold,0.0,73,2,right,2022_Feb_25_1240,habits_v_MRI,5,40,1,5,30,15,5,15,30,30,60,RR,60.0789107741187
9,1,resp2,stim/left_resp_img.png,"[0.5, 0]",left,stim/gold_coin.png,silver,,,,,training,,,gold,val,,,,,0,0,0,0,0.0,1.0,1.0,1.0,0,training_resp,,111.606565736933,23.3802158706821,1.0,13.0,left,gold,1.0,73,2,right,2022_Feb_25_1240,habits_v_MRI,5,40,1,5,30,15,5,15,30,30,60,RR,60.0789107741187
9,1,resp2,stim/left_resp_img.png,"[0.5, 0]",left,stim/gold_coin.png,silver,,,,,training,,,gold,val,,,,,0,0,0,0,0.0,1.0,1.0,1.0,0,training_resp,,112.273225952173,24.0468837103108,1.0,,left,gold,0.0,73,2,right,2022_Feb_25_1240,habits_v_MRI,5,40,1,5,30,15,5,15,30,30,60,RR,60.0789107741187
9,1,resp2,stim/left_resp_img.png,"[0.5, 0]",left,stim/gold_coin.png,silver,,,,,training,,,gold,val,,,,,0,0,0,0,0.0,1.0,1.0,1.0,0,training_resp,,112.556563933496,24.3302216916345,1.0,,left,gold,0.0,73,2,right,2022_Feb_25_1240,habits_v_MRI,5,40,1,5,30,15,5,15,30,30,60,RR,60.0789107741187
9,1,resp2,stim/left_resp_img.png,"[0.5, 0]",left,stim/gold_coin.png,silver,,,,,training,,,gold,val,,,,,0,0,0,0,0.0,1.0,1.0,1.0,0,training_resp,,112.839788428275,24.6134494120488,1.0,,left,gold,0.0,73,2,right,2022_Feb_25_1240,habits_v_MRI,5,40,1,5,30,15,5,15,30,30,60,RR,60.0789107741187
9,1,resp2,stim/left_resp_img.png,"[0.5, 0]",left,stim/gold_coin.png,silver,,,,,training,,,gold,val,,,,,0,0,0,0,0.0,1.0,1.0,1.0,0,training_resp,,113.15644921537,24.9301087328931,1.0,,left,gold,0.0,73,2,right,2022_Feb_25_1240,habits_v_MRI,5,40,1,5,30,15,5,15,30,30,60,RR,60.0789107741187
9,1,resp2,stim/left_resp_img.png,"[0.5, 0]",left,stim/gold_coin.png,silver,,,,,training,,,gold,val,,,,,0,0,0,0,0.0,1.0,1.0,1.0,0,training_resp,,113.473158388166,25.2468176124385,1.0,,left,gold,0.0,73,2,right,2022_Feb_25_1240,habits_v_MRI,5,40,1,5,30,15,5,15,30,30,60,RR,60.0789107741187
9,1,resp2,stim/left_resp_img.png,"[0.5, 0]",left,stim/gold_coin.png,silver,,,,,training,,,gold,val,,,,,0,0,0,0,0.0,1.0,1.0,1.0,0,training_resp,,113.756439772784,25.5300928389188,1.0,,left,gold,0.0,73,2,right,2022_Feb_25_1240,habits_v_MRI,5,40,1,5,30,15,5,15,30,30,60,RR,60.0789107741187
9,1,resp2,stim/left_resp_img.png,"[0.5, 0]",left,stim/gold_coin.png,silver,,,,,training,,,gold,val,,,,,0,0,0,0,0.0,1.0,1.0,1.0,0,training_resp,,114.039748722687,25.8134023753228,1.0,,left,gold,0.0,73,2,right,2022_Feb_25_1240,habits_v_MRI,5,40,1,5,30,15,5,15,30,30,60,RR,60.0789107741187
9,1,resp2,stim/left_resp_img.png,"[0.5, 0]",left,stim/gold_coin.png,silver,,,,,training,,,gold,val,,,,,0,0,0,0,0.0,1.0,1.0,1.0,0,training_resp,,114.35641537467,26.1300693205558,1.0,,left,gold,0.0,73,2,right,2022_Feb_25_1240,habits_v_MRI,5,40,1,5,30,15,5,15,30,30,60,RR,60.0789107741187
9,1,resp2,stim/left_resp_img.png,"[0.5, 0]",left,stim/gold_coin.png,silver,,,,,training,,,gold,val,,,,,0,0,0,0,0.0,1.0,1.0,1.0,0,training_resp,,114.656332063256,26.4299892348936,1.0,,left,gold,0.0,73,2,right,2022_Feb_25_1240,habits_v_MRI,5,40,1,5,30,15,5,15,30,30,60,RR,60.0789107741187
9,1,resp2,stim/left_resp_img.png,"[0.5, 0]",left,stim/gold_coin.png,silver,,,,,training,,,gold,val,,,,,0,0,0,0,0.0,1.0,1.0,1.0,0,training_resp,,114.939692917746,26.7133536083857,1.0,,left,gold,0.0,73,2,right,2022_Feb_25_1240,habits_v_MRI,5,40,1,5,30,15,5,15,30,30,60,RR,60.0789107741187
9,1,resp2,stim/left_resp_img.png,"[0.5, 0]",left,stim/gold_coin.png,silver,,,,,training,,,gold,val,,,,,0,0,0,0,0.0,1.0,1.0,1.0,0,training_resp,,115.223004800151,26.9966681299265,1.0,,left,gold,0.0,73,2,right,2022_Feb_25_1240,habits_v_MRI,5,40,1,5,30,15,5,15,30,30,60,RR,60.0789107741187
9,1,resp2,stim/left_resp_img.png,"[0.5, 0]",left,stim/gold_coin.png,silver,,,,,training,,,gold,val,,,,,0,0,0,0,0.0,1.0,1.0,1.0,0,training_resp,,115.539687287412,27.3133183601312,1.0,,left,gold,0.0,73,2,right,2022_Feb_25_1240,habits_v_MRI,5,40,1,5,30,15,5,15,30,30,60,RR,60.0789107741187
9,1,resp2,stim/left_resp_img.png,"[0.5, 0]",left,stim/gold_coin.png,silver,,,,,training,,,gold,val,,,,,0,0,0,0,0.0,1.0,1.0,1.0,0,training_resp,,115.78963941487,27.5632968797581,1.0,15.0,left,gold,1.0,73,2,right,2022_Feb_25_1240,habits_v_MRI,5,40,1,5,30,15,5,15,30,30,60,RR,60.0789107741187
9,1,resp2,stim/left_resp_img.png,"[0.5, 0]",left,stim/gold_coin.png,silver,,,,,training,,,gold,val,,,,,0,0,0,0,0.0,1.0,1.0,1.0,0,training_resp,,116.372950681369,28.1466143045109,1.0,,left,gold,0.0,73,2,right,2022_Feb_25_1240,habits_v_MRI,5,40,1,5,30,15,5,15,30,30,60,RR,60.0789107741187
9,1,resp2,stim/left_resp_img.png,"[0.5, 0]",left,stim/gold_coin.png,silver,,,,,training,,,gold,val,,,,,0,0,0,0,0.0,1.0,1.0,1.0,0,training_resp,,116.656260804273,28.429915043409,1.0,,left,gold,0.0,73,2,right,2022_Feb_25_1240,habits_v_MRI,5,40,1,5,30,15,5,15,30,30,60,RR,60.0789107741187
9,1,resp2,stim/left_resp_img.png,"[0.5, 0]",left,stim/gold_coin.png,silver,,,,,training,,,gold,val,,,,,0,0,0,0,0.0,1.0,1.0,1.0,0,training_resp,,116.972945637535,28.7466051551746,1.0,,left,gold,0.0,73,2,right,2022_Feb_25_1240,habits_v_MRI,5,40,1,5,30,15,5,15,30,30,60,RR,60.0789107741187
9,1,resp2,stim/left_resp_img.png,"[0.5, 0]",left,stim/gold_coin.png,silver,,,,,training,,,gold,val,,,,,0,0,0,0,0.0,1.0,1.0,1.0,0,training_resp,,117.272935344605,29.0465951554943,1.0,,left,gold,0.0,73,2,right,2022_Feb_25_1240,habits_v_MRI,5,40,1,5,30,15,5,15,30,30,60,RR,60.0789107741187
9,1,resp2,stim/left_resp_img.png,"[0.5, 0]",left,stim/gold_coin.png,silver,,,,,training,,,gold,val,,,,,0,0,0,0,0.0,1.0,1.0,1.0,0,training_resp,,117.556174501777,29.3298246354097,1.0,,left,gold,0.0,73,2,right,2022_Feb_25_1240,habits_v_MRI,5,40,1,5,30,15,5,15,30,30,60,RR,60.0789107741187
9,1,resp2,stim/left_resp_img.png,"[0.5, 0]",left,stim/gold_coin.png,silver,,,,,training,,,gold,val,,,,,0,0,0,0,0.0,1.0,1.0,1.0,0,training_resp,,117.872935872409,29.6465865926584,1.0,,left,gold,0.0,73,2,right,2022_Feb_25_1240,habits_v_MRI,5,40,1,5,30,15,5,15,30,30,60,RR,60.0789107741187
9,1,resp2,stim/left_resp_img.png,"[0.5, 0]",left,stim/gold_coin.png,silver,,,,,training,,,gold,val,,,,,0,0,0,0,0.0,1.0,1.0,1.0,0,training_resp,,118.139550869004,29.913210093393,1.0,,left,gold,0.0,73,2,right,2022_Feb_25_1240,habits_v_MRI,5,40,1,5,30,15,5,15,30,30,60,RR,60.0789107741187
9,1,resp2,stim/left_resp_img.png,"[0.5, 0]",left,stim/gold_coin.png,silver,,,,,training,,,gold,val,,,,,0,0,0,0,0.0,1.0,1.0,1.0,0,training_resp,,118.439464625204,30.21312883473,1.0,,left,gold,0.0,73,2,right,2022_Feb_25_1240,habits_v_MRI,5,40,1,5,30,15,5,15,30,30,60,RR,60.0789107741187
9,1,resp2,stim/left_resp_img.png,"[0.5, 0]",left,stim/gold_coin.png,silver,,,,,training,,,gold,val,,,,,0,0,0,0,0.0,1.0,1.0,1.0,0,training_resp,,118.73959362437,30.5131208876846,1.0,,left,gold,0.0,73,2,right,2022_Feb_25_1240,habits_v_MRI,5,40,1,5,30,15,5,15,30,30,60,RR,60.0789107741187
9,1,resp2,stim/left_resp_img.png,"[0.5, 0]",left,stim/gold_coin.png,silver,,,,,training,,,gold,val,,,,,0,0,0,0,0.0,1.0,1.0,1.0,0,training_resp,,119.039432895836,30.813092706725,1.0,,left,gold,0.0,73,2,right,2022_Feb_25_1240,habits_v_MRI,5,40,1,5,30,15,5,15,30,30,60,RR,60.0789107741187
9,1,resp2,stim/left_resp_img.png,"[0.5, 0]",left,stim/gold_coin.png,silver,,,,,training,,,gold,val,,,,,0,0,0,0,0.0,1.0,1.0,1.0,0,training_resp,,119.339395037736,31.1130560215097,1.0,,left,gold,0.0,73,2,right,2022_Feb_25_1240,habits_v_MRI,5,40,1,5,30,15,5,15,30,30,60,RR,60.0789107741187
9,1,resp2,stim/left_resp_img.png,"[0.5, 0]",left,stim/gold_coin.png,silver,,,,,training,,,gold,val,,,,,0,0,0,0,0.0,1.0,1.0,1.0,0,training_resp,,119.639426679001,31.4130636166083,1.0,,left,gold,0.0,73,2,right,2022_Feb_25_1240,habits_v_MRI,5,40,1,5,30,15,5,15,30,30,60,RR,60.0789107741187
9,1,resp2,stim/left_resp_img.png,"[0.5, 0]",left,stim/gold_coin.png,silver,,,,,training,,,gold,val,,,,,0,0,0,0,0.0,1.0,1.0,1.0,0,training_resp,,119.939361255616,31.7130172542529,1.0,,left,gold,0.0,73,2,right,2022_Feb_25_1240,habits_v_MRI,5,40,1,5,30,15,5,15,30,30,60,RR,60.0789107741187
9,1,resp2,stim/left_resp_img.png,"[0.5, 0]",left,stim/gold_coin.png,silver,,,,,training,,,gold,val,,,,,0,0,0,0,0.0,1.0,1.0,1.0,0,training_resp,,120.256059871521,32.0297196824104,1.0,,left,gold,0.0,73,2,right,2022_Feb_25_1240,habits_v_MRI,5,40,1,5,30,15,5,15,30,30,60,RR,60.0789107741187
9,1,resp2,stim/left_resp_img.png,"[0.5, 0]",left,stim/gold_coin.png,silver,,,,,training,,,gold,val,,,,,0,0,0,0,0.0,1.0,1.0,1.0,0,training_resp,,120.556052217842,32.3296935540857,1.0,23.0,left,gold,1.0,73,2,right,2022_Feb_25_1240,habits_v_MRI,5,40,1,5,30,15,5,15,30,30,60,RR,60.0789107741187
9,1,resp2,stim/left_resp_img.png,"[0.5, 0]",left,stim/gold_coin.png,silver,,,,,training,,,gold,val,,,,,0,0,0,0,0.0,1.0,1.0,1.0,0,training_resp,,121.13932330953,32.9129757891642,1.0,,left,gold,0.0,73,2,right,2022_Feb_25_1240,habits_v_MRI,5,40,1,5,30,15,5,15,30,30,60,RR,60.0789107741187
9,1,resp2,stim/left_resp_img.png,"[0.5, 0]",left,stim/gold_coin.png,silver,,,,,training,,,gold,val,,,,,0,0,0,0,0.0,1.0,1.0,1.0,0,training_resp,,121.439256713144,33.2129127117805,1.0,,left,gold,0.0,73,2,right,2022_Feb_25_1240,habits_v_MRI,5,40,1,5,30,15,5,15,30,30,60,RR,60.0789107741187
9,1,resp2,stim/left_resp_img.png,"[0.5, 0]",left,stim/gold_coin.png,silver,,,,,training,,,gold,val,,,,,0,0,0,0,0.0,1.0,1.0,1.0,0,training_resp,,121.722746303072,33.4963542092592,1.0,,left,gold,0.0,73,2,right,2022_Feb_25_1240,habits_v_MRI,5,40,1,5,30,15,5,15,30,30,60,RR,60.0789107741187
9,1,resp2,stim/left_resp_img.png,"[0.5, 0]",left,stim/gold_coin.png,silver,,,,,training,,,gold,val,,,,,0,0,0,0,0.0,1.0,1.0,1.0,0,training_resp,,122.022960930364,33.7962609274546,1.0,,left,gold,0.0,73,2,right,2022_Feb_25_1240,habits_v_MRI,5,40,1,5,30,15,5,15,30,30,60,RR,60.0789107741187
9,1,resp2,stim/left_resp_img.png,"[0.5, 0]",left,stim/gold_coin.png,silver,,,,,training,,,gold,val,,,,,0,0,0,0,0.0,1.0,1.0,1.0,0,training_resp,,122.32255534071,34.0962133920984,1.0,,left,gold,0.0,73,2,right,2022_Feb_25_1240,habits_v_MRI,5,40,1,5,30,15,5,15,30,30,60,RR,60.0789107741187
9,1,resp2,stim/left_resp_img.png,"[0.5, 0]",left,stim/gold_coin.png,silver,,,,,training,,,gold,val,,,,,0,0,0,0,0.0,1.0,1.0,1.0,0,training_resp,,122.589218429872,34.3628712027566,1.0,,left,gold,0.0,73,2,right,2022_Feb_25_1240,habits_v_MRI,5,40,1,5,30,15,5,15,30,30,60,RR,60.0789107741187
9,1,resp2,stim/left_resp_img.png,"[0.5, 0]",left,stim/gold_coin.png,silver,,,,,training,,,gold,val,,,,,0,0,0,0,0.0,1.0,1.0,1.0,0,training_resp,,122.88926356053,34.6629201456672,1.0,,left,gold,0.0,73,2,right,2022_Feb_25_1240,habits_v_MRI,5,40,1,5,30,15,5,15,30,30,60,RR,60.0789107741187
9,1,resp2,stim/left_resp_img.png,"[0.5, 0]",left,stim/gold_coin.png,silver,,,,,training,,,gold,val,,,,,0,0,0,0,0.0,1.0,1.0,1.0,0,training_resp,,123.189222769928,34.9628817009507,1.0,,left,gold,0.0,73,2,right,2022_Feb_25_1240,habits_v_MRI,5,40,1,5,30,15,5,15,30,30,60,RR,60.0789107741187
9,1,resp2,stim/left_resp_img.png,"[0.5, 0]",left,stim/gold_coin.png,silver,,,,,training,,,gold,val,,,,,0,0,0,0,0.0,1.0,1.0,1.0,0,training_resp,,123.439219764085,35.2128769357223,1.0,,left,gold,0.0,73,2,right,2022_Feb_25_1240,habits_v_MRI,5,40,1,5,30,15,5,15,30,30,60,RR,60.0789107741187
9,1,resp2,stim/left_resp_img.png,"[0.5, 0]",left,stim/gold_coin.png,silver,,,,,training,,,gold,val,,,,,0,0,0,0,0.0,1.0,1.0,1.0,0,training_resp,,123.722573873936,35.4962157966802,1.0,,left,gold,0.0,73,2,right,2022_Feb_25_1240,habits_v_MRI,5,40,1,5,30,15,5,15,30,30,60,RR,60.0789107741187
9,1,resp2,stim/left_resp_img.png,"[0.5, 0]",left,stim/gold_coin.png,silver,,,,,training,,,gold,val,,,,,0,0,0,0,0.0,1.0,1.0,1.0,0,training_resp,,124.05586087436,35.8295195121318,1.0,,left,gold,0.0,73,2,right,2022_Feb_25_1240,habits_v_MRI,5,40,1,5,30,15,5,15,30,30,60,RR,60.0789107741187
9,1,resp2,stim/left_resp_img.png,"[0.5, 0]",left,stim/gold_coin.png,silver,,,,,training,,,gold,val,,,,,0,0,0,0,0.0,1.0,1.0,1.0,0,training_resp,,124.322840376641,36.0961248315871,1.0,,left,gold,0.0,73,2,right,2022_Feb_25_1240,habits_v_MRI,5,40,1,5,30,15,5,15,30,30,60,RR,60.0789107741187
9,1,resp2,stim/left_resp_img.png,"[0.5, 0]",left,stim/gold_coin.png,silver,,,,,training,,,gold,val,,,,,0,0,0,0,0.0,1.0,1.0,1.0,0,training_resp,,124.605807107524,36.3794590006582,1.0,,left,gold,0.0,73,2,right,2022_Feb_25_1240,habits_v_MRI,5,40,1,5,30,15,5,15,30,30,60,RR,60.0789107741187
9,1,resp2,stim/left_resp_img.png,"[0.5, 0]",left,stim/gold_coin.png,silver,,,,,training,,,gold,val,,,,,0,0,0,0,0.0,1.0,1.0,1.0,0,training_resp,,124.905825552763,36.6794850702863,1.0,,left,gold,0.0,73,2,right,2022_Feb_25_1240,habits_v_MRI,5,40,1,5,30,15,5,15,30,30,60,RR,60.0789107741187
9,1,resp2,stim/left_resp_img.png,"[0.5, 0]",left,stim/gold_coin.png,silver,,,,,training,,,gold,val,,,,,0,0,0,0,0.0,1.0,1.0,1.0,0,training_resp,,125.222383703454,36.9960414614761,1.0,,left,gold,0.0,73,2,right,2022_Feb_25_1240,habits_v_MRI,5,40,1,5,30,15,5,15,30,30,60,RR,60.0789107741187
9,1,resp2,stim/left_resp_img.png,"[0.5, 0]",left,stim/gold_coin.png,silver,,,,,training,,,gold,val,,,,,0,0,0,0,0.0,1.0,1.0,1.0,0,training_resp,,125.45573600987,37.2293996328954,1.0,,left,gold,0.0,73,2,right,2022_Feb_25_1240,habits_v_MRI,5,40,1,5,30,15,5,15,30,30,60,RR,60.0789107741187
9,1,resp2,stim/left_resp_img.png,"[0.5, 0]",left,stim/gold_coin.png,silver,,,,,training,,,gold,val,,,,,0,0,0,0,0.0,1.0,1.0,1.0,0,training_resp,,125.789060838986,37.5627074537333,1.0,,left,gold,0.0,73,2,right,2022_Feb_25_1240,habits_v_MRI,5,40,1,5,30,15,5,15,30,30,60,RR,60.0789107741187
9,1,resp2,stim/left_resp_img.png,"[0.5, 0]",left,stim/gold_coin.png,silver,,,,,training,,,gold,val,,,,,0,0,0,0,0.0,1.0,1.0,1.0,0,training_resp,,126.072384744417,37.8460413295543,1.0,,left,gold,0.0,73,2,right,2022_Feb_25_1240,habits_v_MRI,5,40,1,5,30,15,5,15,30,30,60,RR,60.0789107741187
9,1,resp2,stim/left_resp_img.png,"[0.5, 0]",left,stim/gold_coin.png,silver,,,,,training,,,gold,val,,,,,0,0,0,0,0.0,1.0,1.0,1.0,0,training_resp,,126.322405784857,38.0960609037429,1.0,,left,gold,0.0,73,2,right,2022_Feb_25_1240,habits_v_MRI,5,40,1,5,30,15,5,15,30,30,60,RR,60.0789107741187
9,1,resp2,stim/left_resp_img.png,"[0.5, 0]",left,stim/gold_coin.png,silver,,,,,training,,,gold,val,,,,,0,0,0,0,0.0,1.0,1.0,1.0,0,training_resp,,126.622324819444,38.395976712578,1.0,,left,gold,0.0,73,2,right,2022_Feb_25_1240,habits_v_MRI,5,40,1,5,30,15,5,15,30,30,60,RR,60.0789107741187
9,1,resp2,stim/left_resp_img.png,"[0.5, 0]",left,stim/gold_coin.png,silver,,,,,training,,,gold,val,,,,,0,0,0,0,0.0,1.0,1.0,1.0,0,training_resp,,126.855627860408,38.6292826860445,1.0,,left,gold,0.0,73,2,right,2022_Feb_25_1240,habits_v_MRI,5,40,1,5,30,15,5,15,30,30,60,RR,60.0789107741187
9,1,resp2,stim/left_resp_img.png,"[0.5, 0]",left,stim/gold_coin.png,silver,,,,,training,,,gold,val,,,,,0,0,0,0,0.0,1.0,1.0,1.0,0,training_resp,,127.122324379627,38.8959800850134,1.0,,left,gold,0.0,73,2,right,2022_Feb_25_1240,habits_v_MRI,5,40,1,5,30,15,5,15,30,30,60,RR,60.0789107741187
9,1,resp2,stim/left_resp_img.png,"[0.5, 0]",left,stim/gold_coin.png,silver,,,,,training,,,gold,val,,,,,0,0,0,0,0.0,1.0,1.0,1.0,0,training_resp,,127.43901067914,39.2126669710269,1.0,19.0,left,gold,1.0,73,2,right,2022_Feb_25_1240,habits_v_MRI,5,40,1,5,30,15,5,15,30,30,60,RR,60.0789107741187
9,1,resp2,stim/left_resp_img.png,"[0.5, 0]",left,stim/gold_coin.png,silver,,,,,training,,,gold,val,,,,,0,0,0,0,0.0,1.0,1.0,1.0,0,training_resp,,128.022227520123,39.7958788268734,1.0,,left,gold,0.0,73,2,right,2022_Feb_25_1240,habits_v_MRI,5,40,1,5,30,15,5,15,30,30,60,RR,60.0789107741187
9,1,resp2,stim/left_resp_img.png,"[0.5, 0]",left,stim/gold_coin.png,silver,,,,,training,,,gold,val,,,,,0,0,0,0,0.0,1.0,1.0,1.0,0,training_resp,,128.255993304541,40.0296234975103,1.0,,left,gold,0.0,73,2,right,2022_Feb_25_1240,habits_v_MRI,5,40,1,5,30,15,5,15,30,30,60,RR,60.0789107741187
9,1,resp2,stim/left_resp_img.png,"[0.5, 0]",left,stim/gold_coin.png,silver,,,,,training,,,gold,val,,,,,0,0,0,0,0.0,1.0,1.0,1.0,0,training_resp,,128.605489228037,40.3791364291683,1.0,,left,gold,0.0,73,2,right,2022_Feb_25_1240,habits_v_MRI,5,40,1,5,30,15,5,15,30,30,60,RR,60.0789107741187
9,1,resp2,stim/left_resp_img.png,"[0.5, 0]",left,stim/gold_coin.png,silver,,,,,training,,,gold,val,,,,,0,0,0,0,0.0,1.0,1.0,1.0,0,training_resp,,128.822442000848,40.5958716130117,1.0,,left,gold,0.0,73,2,right,2022_Feb_25_1240,habits_v_MRI,5,40,1,5,30,15,5,15,30,30,60,RR,60.0789107741187
9,1,resp2,stim/left_resp_img.png,"[0.5, 0]",left,stim/gold_coin.png,silver,,,,,training,,,gold,val,,,,,0,0,0,0,0.0,1.0,1.0,1.0,0,training_resp,,129.12220854708,40.8958633727161,1.0,,left,gold,0.0,73,2,right,2022_Feb_25_1240,habits_v_MRI,5,40,1,5,30,15,5,15,30,30,60,RR,60.0789107741187
9,1,resp2,stim/left_resp_img.png,"[0.5, 0]",left,stim/gold_coin.png,silver,,,,,training,,,gold,val,,,,,0,0,0,0,0.0,1.0,1.0,1.0,0,training_resp,,129.438818895724,41.2124775336124,1.0,,left,gold,0.0,73,2,right,2022_Feb_25_1240,habits_v_MRI,5,40,1,5,30,15,5,15,30,30,60,RR,60.0789107741187
9,1,resp2,stim/left_resp_img.png,"[0.5, 0]",left,stim/gold_coin.png,silver,,,,,training,,,gold,val,,,,,0,0,0,0,0.0,1.0,1.0,1.0,0,training_resp,,129.688854305306,41.4625082511921,1.0,,left,gold,0.0,73,2,right,2022_Feb_25_1240,habits_v_MRI,5,40,1,5,30,15,5,15,30,30,60,RR,60.0789107741187
9,1,resp2,stim/left_resp_img.png,"[0.5, 0]",left,stim/gold_coin.png,silver,,,,,training,,,gold,val,,,,,0,0,0,0,0.0,1.0,1.0,1.0,0,training_resp,,129.972166480846,41.7457960873144,1.0,,left,gold,0.0,73,2,right,2022_Feb_25_1240,habits_v_MRI,5,40,1,5,30,15,5,15,30,30,60,RR,60.0789107741187
9,1,resp2,stim/left_resp_img.png,"[0.5, 0]",left,stim/gold_coin.png,silver,,,,,training,,,gold,val,,,,,0,0,0,0,0.0,1.0,1.0,1.0,0,training_resp,,130.238773853052,42.0124280921882,1.0,,left,gold,0.0,73,2,right,2022_Feb_25_1240,habits_v_MRI,5,40,1,5,30,15,5,15,30,30,60,RR,60.0789107741187
9,1,resp2,stim/left_resp_img.png,"[0.5, 0]",left,stim/gold_coin.png,silver,,,,,training,,,gold,val,,,,,0,0,0,0,0.0,1.0,1.0,1.0,0,training_resp,,130.555480386596,42.329130226979,1.0,,left,gold,0.0,73,2,right,2022_Feb_25_1240,habits_v_MRI,5,40,1,5,30,15,5,15,30,30,60,RR,60.0789107741187
9,1,resp2,stim/left_resp_img.png,"[0.5, 0]",left,stim/gold_coin.png,silver,,,,,training,,,gold,val,,,,,0,0,0,0,0.0,1.0,1.0,1.0,0,training_resp,,130.788726537605,42.5623884012457,1.0,,left,gold,0.0,73,2,right,2022_Feb_25_1240,habits_v_MRI,5,40,1,5,30,15,5,15,30,30,60,RR,60.0789107741187
9,1,resp2,stim/left_resp_img.png,"[0.5, 0]",left,stim/gold_coin.png,silver,,,,,training,,,gold,val,,,,,0,0,0,0,0.0,1.0,1.0,1.0,0,training_resp,,131.105404919479,42.8790576924803,1.0,,left,gold,0.0,73,2,right,2022_Feb_25_1240,habits_v_MRI,5,40,1,5,30,15,5,15,30,30,60,RR,60.0789107741187
9,1,resp2,stim/left_resp_img.png,"[0.5, 0]",left,stim/gold_coin.png,silver,,,,,training,,,gold,val,,,,,0,0,0,0,0.0,1.0,1.0,1.0,0,training_resp,,131.322144501959,43.0957664840389,1.0,,left,gold,0.0,73,2,right,2022_Feb_25_1240,habits_v_MRI,5,40,1,5,30,15,5,15,30,30,60,RR,60.0789107741187
9,1,resp2,stim/left_resp_img.png,"[0.5, 0]",left,stim/gold_coin.png,silver,,,,,training,,,gold,val,,,,,0,0,0,0,0.0,1.0,1.0,1.0,0,training_resp,,131.638756610104,43.4124102627393,1.0,,left,gold,0.0,73,2,right,2022_Feb_25_1240,habits_v_MRI,5,40,1,5,30,15,5,15,30,30,60,RR,60.0789107741187
9,1,resp2,stim/left_resp_img.png,"[0.5, 0]",left,stim/gold_coin.png,silver,,,,,training,,,gold,val,,,,,0,0,0,0,0.0,1.0,1.0,1.0,0,training_resp,,131.938674764941,43.7123228459386,1.0,,left,gold,0.0,73,2,right,2022_Feb_25_1240,habits_v_MRI,5,40,1,5,30,15,5,15,30,30,60,RR,60.0789107741187
9,1,resp2,stim/left_resp_img.png,"[0.5, 0]",left,stim/gold_coin.png,silver,,,,,training,,,gold,val,,,,,0,0,0,0,0.0,1.0,1.0,1.0,0,training_resp,,132.238744235132,44.0123688563472,1.0,,left,gold,0.0,73,2,right,2022_Feb_25_1240,habits_v_MRI,5,40,1,5,30,15,5,15,30,30,60,RR,60.0789107741187
9,1,resp2,stim/left_resp_img.png,"[0.5, 0]",left,stim/gold_coin.png,silver,,,,,training,,,gold,val,,,,,0,0,0,0,0.0,1.0,1.0,1.0,0,training_resp,,132.505317004165,44.2789694837993,1.0,,left,gold,0.0,73,2,right,2022_Feb_25_1240,habits_v_MRI,5,40,1,5,30,15,5,15,30,30,60,RR,60.0789107741187
9,1,resp2,stim/left_resp_img.png,"[0.5, 0]",left,stim/gold_coin.png,silver,,,,,training,,,gold,val,,,,,0,0,0,0,0.0,1.0,1.0,1.0,0,training_resp,,132.805299673229,44.5789512732299,1.0,,left,gold,0.0,73,2,right,2022_Feb_25_1240,habits_v_MRI,5,40,1,5,30,15,5,15,30,30,60,RR,60.0789107741187
9,1,resp2,stim/left_resp_img.png,"[0.5, 0]",left,stim/gold_coin.png,silver,,,,,training,,,gold,val,,,,,0,0,0,0,0.0,1.0,1.0,1.0,0,ITI_start,26.6666666666667,132.906496501411,44.678962211241,,,,,,73,2,right,2022_Feb_25_1240,habits_v_MRI,5,40,1,5,30,15,5,15,30,30,60,RR,60.0789107741187
9,0,resp1,stim/right_resp_img.png,"[-0.5, 0]",right,stim/silver_coin.png,silver,,,,,training,,,silver,deval,,,,,0,0,0,0,1.0,0.0,2.0,0.0,0,training_period_start,37.5,159.608150442597,0.0,2.0,16.0,,,,73,2,right,2022_Feb_25_1240,habits_v_MRI,5,40,1,5,30,15,5,15,30,30,60,RR,60.0789107741187
9,0,resp1,stim/right_resp_img.png,"[-0.5, 0]",right,stim/silver_coin.png,silver,,,,,training,,,silver,deval,,,,,0,0,0,0,1.0,0.0,2.0,0.0,0,training_resp,,160.487026028801,0.898253920604475,2.0,,right,silver,0.0,73,2,right,2022_Feb_25_1240,habits_v_MRI,5,40,1,5,30,15,5,15,30,30,60,RR,60.0789107741187
9,0,resp1,stim/right_resp_img.png,"[-0.5, 0]",right,stim/silver_coin.png,silver,,,,,training,,,silver,deval,,,,,0,0,0,0,1.0,0.0,2.0,0.0,0,training_resp,,161.153653400484,1.5649103235919,2.0,,right,silver,0.0,73,2,right,2022_Feb_25_1240,habits_v_MRI,5,40,1,5,30,15,5,15,30,30,60,RR,60.0789107741187
9,0,resp1,stim/right_resp_img.png,"[-0.5, 0]",right,stim/silver_coin.png,silver,,,,,training,,,silver,deval,,,,,0,0,0,0,1.0,0.0,2.0,0.0,0,training_resp,,161.753618445364,2.1648680374492,2.0,,right,silver,0.0,73,2,right,2022_Feb_25_1240,habits_v_MRI,5,40,1,5,30,15,5,15,30,30,60,RR,60.0789107741187
9,0,resp1,stim/right_resp_img.png,"[-0.5, 0]",right,stim/silver_coin.png,silver,,,,,training,,,silver,deval,,,,,0,0,0,0,1.0,0.0,2.0,0.0,0,training_resp,,162.070243749651,2.48150741751306,2.0,,right,silver,0.0,73,2,right,2022_Feb_25_1240,habits_v_MRI,5,40,1,5,30,15,5,15,30,30,60,RR,60.0789107741187
9,0,resp1,stim/right_resp_img.png,"[-0.5, 0]",right,stim/silver_coin.png,silver,,,,,training,,,silver,deval,,,,,0,0,0,0,1.0,0.0,2.0,0.0,0,training_resp,,162.353550646803,2.76481988630258,2.0,,right,silver,0.0,73,2,right,2022_Feb_25_1240,habits_v_MRI,5,40,1,5,30,15,5,15,30,30,60,RR,60.0789107741187
9,0,resp1,stim/right_resp_img.png,"[-0.5, 0]",right,stim/silver_coin.png,silver,,,,,training,,,silver,deval,,,,,0,0,0,0,1.0,0.0,2.0,0.0,0,training_resp,,162.65350721695,3.06477264431305,2.0,,right,silver,0.0,73,2,right,2022_Feb_25_1240,habits_v_MRI,5,40,1,5,30,15,5,15,30,30,60,RR,60.0789107741187
9,0,resp1,stim/right_resp_img.png,"[-0.5, 0]",right,stim/silver_coin.png,silver,,,,,training,,,silver,deval,,,,,0,0,0,0,1.0,0.0,2.0,0.0,0,training_resp,,162.953495751019,3.36476587026846,2.0,,right,silver,0.0,73,2,right,2022_Feb_25_1240,habits_v_MRI,5,40,1,5,30,15,5,15,30,30,60,RR,60.0789107741187
9,0,resp1,stim/right_resp_img.png,"[-0.5, 0]",right,stim/silver_coin.png,silver,,,,,training,,,silver,deval,,,,,0,0,0,0,1.0,0.0,2.0,0.0,0,training_resp,,163.236821415951,3.64808625681326,2.0,,right,silver,0.0,73,2,right,2022_Feb_25_1240,habits_v_MRI,5,40,1,5,30,15,5,15,30,30,60,RR,60.0789107741187
9,0,resp1,stim/right_resp_img.png,"[-0.5, 0]",right,stim/silver_coin.png,silver,,,,,training,,,silver,deval,,,,,0,0,0,0,1.0,0.0,2.0,0.0,0,training_resp,,163.520539738238,3.93140840274282,2.0,,right,silver,0.0,73,2,right,2022_Feb_25_1240,habits_v_MRI,5,40,1,5,30,15,5,15,30,30,60,RR,60.0789107741187
9,0,resp1,stim/right_resp_img.png,"[-0.5, 0]",right,stim/silver_coin.png,silver,,,,,training,,,silver,deval,,,,,0,0,0,0,1.0,0.0,2.0,0.0,0,training_resp,,163.836801709724,4.24806215183344,2.0,,right,silver,0.0,73,2,right,2022_Feb_25_1240,habits_v_MRI,5,40,1,5,30,15,5,15,30,30,60,RR,60.0789107741187
9,0,resp1,stim/right_resp_img.png,"[-0.5, 0]",right,stim/silver_coin.png,silver,,,,,training,,,silver,deval,,,,,0,0,0,0,1.0,0.0,2.0,0.0,0,training_resp,,164.120086320094,4.53135497320909,2.0,,right,silver,0.0,73,2,right,2022_Feb_25_1240,habits_v_MRI,5,40,1,5,30,15,5,15,30,30,60,RR,60.0789107741187
9,0,resp1,stim/right_resp_img.png,"[-0.5, 0]",right,stim/silver_coin.png,silver,,,,,training,,,silver,deval,,,,,0,0,0,0,1.0,0.0,2.0,0.0,0,training_resp,,164.403393217246,4.81465981760994,2.0,,right,silver,0.0,73,2,right,2022_Feb_25_1240,habits_v_MRI,5,40,1,5,30,15,5,15,30,30,60,RR,60.0789107741187
9,0,resp1,stim/right_resp_img.png,"[-0.5, 0]",right,stim/silver_coin.png,silver,,,,,training,,,silver,deval,,,,,0,0,0,0,1.0,0.0,2.0,0.0,0,training_resp,,164.720079810009,5.13133409398142,2.0,,right,silver,0.0,73,2,right,2022_Feb_25_1240,habits_v_MRI,5,40,1,5,30,15,5,15,30,30,60,RR,60.0789107741187
9,0,resp1,stim/right_resp_img.png,"[-0.5, 0]",right,stim/silver_coin.png,silver,,,,,training,,,silver,deval,,,,,0,0,0,0,1.0,0.0,2.0,0.0,0,training_resp,,165.003341840347,5.41460404207464,2.0,,right,silver,0.0,73,2,right,2022_Feb_25_1240,habits_v_MRI,5,40,1,5,30,15,5,15,30,30,60,RR,60.0789107741187
9,0,resp1,stim/right_resp_img.png,"[-0.5, 0]",right,stim/silver_coin.png,silver,,,,,training,,,silver,deval,,,,,0,0,0,0,1.0,0.0,2.0,0.0,0,training_resp,,165.319984152913,5.73123609088361,2.0,,right,silver,0.0,73,2,right,2022_Feb_25_1240,habits_v_MRI,5,40,1,5,30,15,5,15,30,30,60,RR,60.0789107741187
9,0,resp1,stim/right_resp_img.png,"[-0.5, 0]",right,stim/silver_coin.png,silver,,,,,training,,,silver,deval,,,,,0,0,0,0,1.0,0.0,2.0,0.0,0,training_resp,,165.58667891263,5.99794668599498,2.0,11.0,right,silver,1.0,73,2,right,2022_Feb_25_1240,habits_v_MRI,5,40,1,5,30,15,5,15,30,30,60,RR,60.0789107741187
9,0,resp1,stim/right_resp_img.png,"[-0.5, 0]",right,stim/silver_coin.png,silver,,,,,training,,,silver,deval,,,,,0,0,0,0,1.0,0.0,2.0,0.0,0,training_resp,,166.18690993241,6.59789912134875,2.0,,right,silver,0.0,73,2,right,2022_Feb_25_1240,habits_v_MRI,5,40,1,5,30,15,5,15,30,30,60,RR,60.0789107741187
9,0,resp1,stim/right_resp_img.png,"[-0.5, 0]",right,stim/silver_coin.png,silver,,,,,training,,,silver,deval,,,,,0,0,0,0,1.0,0.0,2.0,0.0,0,training_resp,,166.486604046659,6.89786830113735,2.0,,right,silver,0.0,73,2,right,2022_Feb_25_1240,habits_v_MRI,5,40,1,5,30,15,5,15,30,30,60,RR,60.0789107741187
9,0,resp1,stim/right_resp_img.png,"[-0.5, 0]",right,stim/silver_coin.png,silver,,,,,training,,,silver,deval,,,,,0,0,0,0,1.0,0.0,2.0,0.0,0,training_resp,,166.769944667234,7.1812153729843,2.0,,right,silver,0.0,73,2,right,2022_Feb_25_1240,habits_v_MRI,5,40,1,5,30,15,5,15,30,30,60,RR,60.0789107741187
9,0,resp1,stim/right_resp_img.png,"[-0.5, 0]",right,stim/silver_coin.png,silver,,,,,training,,,silver,deval,,,,,0,0,0,0,1.0,0.0,2.0,0.0,0,training_resp,,167.036532978294,7.44780133815948,2.0,,right,silver,0.0,73,2,right,2022_Feb_25_1240,habits_v_MRI,5,40,1,5,30,15,5,15,30,30,60,RR,60.0789107741187
9,0,resp1,stim/right_resp_img.png,"[-0.5, 0]",right,stim/silver_coin.png,silver,,,,,training,,,silver,deval,,,,,0,0,0,0,1.0,0.0,2.0,0.0,0,training_resp,,167.336588665959,7.74785497307312,2.0,,right,silver,0.0,73,2,right,2022_Feb_25_1240,habits_v_MRI,5,40,1,5,30,15,5,15,30,30,60,RR,60.0789107741187
9,0,resp1,stim/right_resp_img.png,"[-0.5, 0]",right,stim/silver_coin.png,silver,,,,,training,,,silver,deval,,,,,0,0,0,0,1.0,0.0,2.0,0.0,0,training_resp,,167.603232400725,8.01449225633405,2.0,,right,silver,0.0,73,2,right,2022_Feb_25_1240,habits_v_MRI,5,40,1,5,30,15,5,15,30,30,60,RR,60.0789107741187
9,0,resp1,stim/right_resp_img.png,"[-0.5, 0]",right,stim/silver_coin.png,silver,,,,,training,,,silver,deval,,,,,0,0,0,0,1.0,0.0,2.0,0.0,0,training_resp,,167.936517934781,8.34778013639152,2.0,,right,silver,0.0,73,2,right,2022_Feb_25_1240,habits_v_MRI,5,40,1,5,30,15,5,15,30,30,60,RR,60.0789107741187
9,0,resp1,stim/right_resp_img.png,"[-0.5, 0]",right,stim/silver_coin.png,silver,,,,,training,,,silver,deval,,,,,0,0,0,0,1.0,0.0,2.0,0.0,0,training_resp,,168.186524312943,8.59778387530241,2.0,,right,silver,0.0,73,2,right,2022_Feb_25_1240,habits_v_MRI,5,40,1,5,30,15,5,15,30,30,60,RR,60.0789107741187
9,0,resp1,stim/right_resp_img.png,"[-0.5, 0]",right,stim/silver_coin.png,silver,,,,,training,,,silver,deval,,,,,0,0,0,0,1.0,0.0,2.0,0.0,0,training_resp,,168.469891912187,8.88115616654977,2.0,,right,silver,0.0,73,2,right,2022_Feb_25_1240,habits_v_MRI,5,40,1,5,30,15,5,15,30,30,60,RR,60.0789107741187
9,0,resp1,stim/right_resp_img.png,"[-0.5, 0]",right,stim/silver_coin.png,silver,,,,,training,,,silver,deval,,,,,0,0,0,0,1.0,0.0,2.0,0.0,0,training_resp,,168.76979423163,9.18105965899304,2.0,,right,silver,0.0,73,2,right,2022_Feb_25_1240,habits_v_MRI,5,40,1,5,30,15,5,15,30,30,60,RR,60.0789107741187
9,0,resp1,stim/right_resp_img.png,"[-0.5, 0]",right,stim/silver_coin.png,silver,,,,,training,,,silver,deval,,,,,0,0,0,0,1.0,0.0,2.0,0.0,0,training_resp,,169.0197865339,9.43105665314943,2.0,17.0,right,silver,1.0,73,2,right,2022_Feb_25_1240,habits_v_MRI,5,40,1,5,30,15,5,15,30,30,60,RR,60.0789107741187
9,0,resp1,stim/right_resp_img.png,"[-0.5, 0]",right,stim/silver_coin.png,silver,,,,,training,,,silver,deval,,,,,0,0,0,0,1.0,0.0,2.0,0.0,0,training_resp,,169.569755933597,9.98100259318017,2.0,,right,silver,0.0,73,2,right,2022_Feb_25_1240,habits_v_MRI,5,40,1,5,30,15,5,15,30,30,60,RR,60.0789107741187
9,0,resp1,stim/right_resp_img.png,"[-0.5, 0]",right,stim/silver_coin.png,silver,,,,,training,,,silver,deval,,,,,0,0,0,0,1.0,0.0,2.0,0.0,0,training_resp,,169.819698383915,10.2309643977787,2.0,,right,silver,0.0,73,2,right,2022_Feb_25_1240,habits_v_MRI,5,40,1,5,30,15,5,15,30,30,60,RR,60.0789107741187
9,0,resp1,stim/right_resp_img.png,"[-0.5, 0]",right,stim/silver_coin.png,silver,,,,,training,,,silver,deval,,,,,0,0,0,0,1.0,0.0,2.0,0.0,0,training_resp,,170.08638024074,10.4976125311805,2.0,,right,silver,0.0,73,2,right,2022_Feb_25_1240,habits_v_MRI,5,40,1,5,30,15,5,15,30,30,60,RR,60.0789107741187
9,0,resp1,stim/right_resp_img.png,"[-0.5, 0]",right,stim/silver_coin.png,silver,,,,,training,,,silver,deval,,,,,0,0,0,0,1.0,0.0,2.0,0.0,0,training_resp,,170.369952819543,10.7809736790368,2.0,,right,silver,0.0,73,2,right,2022_Feb_25_1240,habits_v_MRI,5,40,1,5,30,15,5,15,30,30,60,RR,60.0789107741187
9,0,resp1,stim/right_resp_img.png,"[-0.5, 0]",right,stim/silver_coin.png,silver,,,,,training,,,silver,deval,,,,,0,0,0,0,1.0,0.0,2.0,0.0,0,training_resp,,170.653050631634,11.0643075548578,2.0,,right,silver,0.0,73,2,right,2022_Feb_25_1240,habits_v_MRI,5,40,1,5,30,15,5,15,30,30,60,RR,60.0789107741187
9,0,resp1,stim/right_resp_img.png,"[-0.5, 0]",right,stim/silver_coin.png,silver,,,,,training,,,silver,deval,,,,,0,0,0,0,1.0,0.0,2.0,0.0,0,training_resp,,170.936350490898,11.3476068276213,2.0,,right,silver,0.0,73,2,right,2022_Feb_25_1240,habits_v_MRI,5,40,1,5,30,15,5,15,30,30,60,RR,60.0789107741187
9,0,resp1,stim/right_resp_img.png,"[-0.5, 0]",right,stim/silver_coin.png,silver,,,,,training,,,silver,deval,,,,,0,0,0,0,1.0,0.0,2.0,0.0,0,training_resp,,171.219916324946,11.6309181234101,2.0,,right,silver,0.0,73,2,right,2022_Feb_25_1240,habits_v_MRI,5,40,1,5,30,15,5,15,30,30,60,RR,60.0789107741187
9,0,resp1,stim/right_resp_img.png,"[-0.5, 0]",right,stim/silver_coin.png,silver,,,,,training,,,silver,deval,,,,,0,0,0,0,1.0,0.0,2.0,0.0,0,training_resp,,171.503036130569,11.9142625561217,2.0,,right,silver,0.0,73,2,right,2022_Feb_25_1240,habits_v_MRI,5,40,1,5,30,15,5,15,30,30,60,RR,60.0789107741187
9,0,resp1,stim/right_resp_img.png,"[-0.5, 0]",right,stim/silver_coin.png,silver,,,,,training,,,silver,deval,,,,,0,0,0,0,1.0,0.0,2.0,0.0,0,training_resp,,172.019653986325,12.4309050446609,2.0,,right,silver,0.0,73,2,right,2022_Feb_25_1240,habits_v_MRI,5,40,1,5,30,15,5,15,30,30,60,RR,60.0789107741187
9,0,resp1,stim/right_resp_img.png,"[-0.5, 0]",right,stim/silver_coin.png,silver,,,,,training,,,silver,deval,,,,,0,0,0,0,1.0,0.0,2.0,0.0,0,training_resp,,172.352955355775,12.7641882327152,2.0,,right,silver,0.0,73,2,right,2022_Feb_25_1240,habits_v_MRI,5,40,1,5,30,15,5,15,30,30,60,RR,60.0789107741187
9,0,resp1,stim/right_resp_img.png,"[-0.5, 0]",right,stim/silver_coin.png,silver,,,,,training,,,silver,deval,,,,,0,0,0,0,1.0,0.0,2.0,0.0,0,training_resp,,172.636380724609,13.0475487940712,2.0,,right,silver,0.0,73,2,right,2022_Feb_25_1240,habits_v_MRI,5,40,1,5,30,15,5,15,30,30,60,RR,60.0789107741187
9,0,resp1,stim/right_resp_img.png,"[-0.5, 0]",right,stim/silver_coin.png,silver,,,,,training,,,silver,deval,,,,,0,0,0,0,1.0,0.0,2.0,0.0,0,training_resp,,172.9028936713,13.314158512163,2.0,,right,silver,0.0,73,2,right,2022_Feb_25_1240,habits_v_MRI,5,40,1,5,30,15,5,15,30,30,60,RR,60.0789107741187
9,0,resp1,stim/right_resp_img.png,"[-0.5, 0]",right,stim/silver_coin.png,silver,,,,,training,,,silver,deval,,,,,0,0,0,0,1.0,0.0,2.0,0.0,0,training_resp,,173.202876633732,13.6141385420924,2.0,,right,silver,0.0,73,2,right,2022_Feb_25_1240,habits_v_MRI,5,40,1,5,30,15,5,15,30,30,60,RR,60.0789107741187
9,0,resp1,stim/right_resp_img.png,"[-0.5, 0]",right,stim/silver_coin.png,silver,,,,,training,,,silver,deval,,,,,0,0,0,0,1.0,0.0,2.0,0.0,0,training_resp,,173.502869273187,13.9141291289125,2.0,,right,silver,0.0,73,2,right,2022_Feb_25_1240,habits_v_MRI,5,40,1,5,30,15,5,15,30,30,60,RR,60.0789107741187
9,0,resp1,stim/right_resp_img.png,"[-0.5, 0]",right,stim/silver_coin.png,silver,,,,,training,,,silver,deval,,,,,0,0,0,0,1.0,0.0,2.0,0.0,0,training_resp,,173.769561980153,14.1808115722379,2.0,,right,silver,0.0,73,2,right,2022_Feb_25_1240,habits_v_MRI,5,40,1,5,30,15,5,15,30,30,60,RR,60.0789107741187
9,0,resp1,stim/right_resp_img.png,"[-0.5, 0]",right,stim/silver_coin.png,silver,,,,,training,,,silver,deval,,,,,0,0,0,0,1.0,0.0,2.0,0.0,0,training_resp,,174.052802017075,14.4640694970731,2.0,,right,silver,0.0,73,2,right,2022_Feb_25_1240,habits_v_MRI,5,40,1,5,30,15,5,15,30,30,60,RR,60.0789107741187
9,0,resp1,stim/right_resp_img.png,"[-0.5, 0]",right,stim/silver_coin.png,silver,,,,,training,,,silver,deval,,,,,0,0,0,0,1.0,0.0,2.0,0.0,0,training_resp,,174.319505867432,14.7307721745456,2.0,9.0,right,silver,1.0,73,2,right,2022_Feb_25_1240,habits_v_MRI,5,40,1,5,30,15,5,15,30,30,60,RR,60.0789107741187
9,0,resp1,stim/right_resp_img.png,"[-0.5, 0]",right,stim/silver_coin.png,silver,,,,,training,,,silver,deval,,,,,0,0,0,0,1.0,0.0,2.0,0.0,0,training_resp,,174.852871927083,15.2641265043058,2.0,,right,silver,0.0,73,2,right,2022_Feb_25_1240,habits_v_MRI,5,40,1,5,30,15,5,15,30,30,60,RR,60.0789107741187
9,0,resp1,stim/right_resp_img.png,"[-0.5, 0]",right,stim/silver_coin.png,silver,,,,,training,,,silver,deval,,,,,0,0,0,0,1.0,0.0,2.0,0.0,0,training_resp,,175.119455253007,15.5307074842276,2.0,,right,silver,0.0,73,2,right,2022_Feb_25_1240,habits_v_MRI,5,40,1,5,30,15,5,15,30,30,60,RR,60.0789107741187
9,0,resp1,stim/right_resp_img.png,"[-0.5, 0]",right,stim/silver_coin.png,silver,,,,,training,,,silver,deval,,,,,0,0,0,0,1.0,0.0,2.0,0.0,0,training_resp,,175.386035939679,15.7972963819047,2.0,,right,silver,0.0,73,2,right,2022_Feb_25_1240,habits_v_MRI,5,40,1,5,30,15,5,15,30,30,60,RR,60.0789107741187
9,0,resp1,stim/right_resp_img.png,"[-0.5, 0]",right,stim/silver_coin.png,silver,,,,,training,,,silver,deval,,,,,0,0,0,0,1.0,0.0,2.0,0.0,0,training_resp,,175.669394155033,16.0806501985062,2.0,,right,silver,0.0,73,2,right,2022_Feb_25_1240,habits_v_MRI,5,40,1,5,30,15,5,15,30,30,60,RR,60.0789107741187
9,0,resp1,stim/right_resp_img.png,"[-0.5, 0]",right,stim/silver_coin.png,silver,,,,,training,,,silver,deval,,,,,0,0,0,0,1.0,0.0,2.0,0.0,0,training_resp,,175.952721286216,16.3639790891903,2.0,,right,silver,0.0,73,2,right,2022_Feb_25_1240,habits_v_MRI,5,40,1,5,30,15,5,15,30,30,60,RR,60.0789107741187
9,0,resp1,stim/right_resp_img.png,"[-0.5, 0]",right,stim/silver_coin.png,silver,,,,,training,,,silver,deval,,,,,0,0,0,0,1.0,0.0,2.0,0.0,0,training_resp,,176.219320447417,16.6305811828934,2.0,,right,silver,0.0,73,2,right,2022_Feb_25_1240,habits_v_MRI,5,40,1,5,30,15,5,15,30,30,60,RR,60.0789107741187
9,0,resp1,stim/right_resp_img.png,"[-0.5, 0]",right,stim/silver_coin.png,silver,,,,,training,,,silver,deval,,,,,0,0,0,0,1.0,0.0,2.0,0.0,0,training_resp,,176.502754906891,16.9140135896159,2.0,,right,silver,0.0,73,2,right,2022_Feb_25_1240,habits_v_MRI,5,40,1,5,30,15,5,15,30,30,60,RR,60.0789107741187
9,0,resp1,stim/right_resp_img.png,"[-0.5, 0]",right,stim/silver_coin.png,silver,,,,,training,,,silver,deval,,,,,0,0,0,0,1.0,0.0,2.0,0.0,0,training_resp,,176.769282515976,17.1805473568384,2.0,,right,silver,0.0,73,2,right,2022_Feb_25_1240,habits_v_MRI,5,40,1,5,30,15,5,15,30,30,60,RR,60.0789107741187
9,0,resp1,stim/right_resp_img.png,"[-0.5, 0]",right,stim/silver_coin.png,silver,,,,,training,,,silver,deval,,,,,0,0,0,0,1.0,0.0,2.0,0.0,0,training_resp,,177.069323834497,17.4805810508551,2.0,13.0,right,silver,1.0,73,2,right,2022_Feb_25_1240,habits_v_MRI,5,40,1,5,30,15,5,15,30,30,60,RR,60.0789107741187
9,0,resp1,stim/right_resp_img.png,"[-0.5, 0]",right,stim/silver_coin.png,silver,,,,,training,,,silver,deval,,,,,0,0,0,0,1.0,0.0,2.0,0.0,0,training_resp,,177.602657343727,18.0139095749473,2.0,,right,silver,0.0,73,2,right,2022_Feb_25_1240,habits_v_MRI,5,40,1,5,30,15,5,15,30,30,60,RR,60.0789107741187
9,0,resp1,stim/right_resp_img.png,"[-0.5, 0]",right,stim/silver_coin.png,silver,,,,,training,,,silver,deval,,,,,0,0,0,0,1.0,0.0,2.0,0.0,0,training_resp,,177.902859654743,18.3138764087344,2.0,,right,silver,0.0,73,2,right,2022_Feb_25_1240,habits_v_MRI,5,40,1,5,30,15,5,15,30,30,60,RR,60.0789107741187
9,0,resp1,stim/right_resp_img.png,"[-0.5, 0]",right,stim/silver_coin.png,silver,,,,,training,,,silver,deval,,,,,0,0,0,0,1.0,0.0,2.0,0.0,0,training_resp,,178.185921984026,18.5971792005002,2.0,,right,silver,0.0,73,2,right,2022_Feb_25_1240,habits_v_MRI,5,40,1,5,30,15,5,15,30,30,60,RR,60.0789107741187
9,0,resp1,stim/right_resp_img.png,"[-0.5, 0]",right,stim/silver_coin.png,silver,,,,,training,,,silver,deval,,,,,0,0,0,0,1.0,0.0,2.0,0.0,0,training_resp,,178.469203075394,18.8804555998649,2.0,,right,silver,0.0,73,2,right,2022_Feb_25_1240,habits_v_MRI,5,40,1,5,30,15,5,15,30,30,60,RR,60.0789107741187
9,0,resp1,stim/right_resp_img.png,"[-0.5, 0]",right,stim/silver_coin.png,silver,,,,,training,,,silver,deval,,,,,0,0,0,0,1.0,0.0,2.0,0.0,0,training_resp,,178.752560117748,19.163820853224,2.0,,right,silver,0.0,73,2,right,2022_Feb_25_1240,habits_v_MRI,5,40,1,5,30,15,5,15,30,30,60,RR,60.0789107741187
9,0,resp1,stim/right_resp_img.png,"[-0.5, 0]",right,stim/silver_coin.png,silver,,,,,training,,,silver,deval,,,,,0,0,0,0,1.0,0.0,2.0,0.0,0,training_resp,,179.052586187376,19.4638478026027,2.0,,right,silver,0.0,73,2,right,2022_Feb_25_1240,habits_v_MRI,5,40,1,5,30,15,5,15,30,30,60,RR,60.0789107741187
9,0,resp1,stim/right_resp_img.png,"[-0.5, 0]",right,stim/silver_coin.png,silver,,,,,training,,,silver,deval,,,,,0,0,0,0,1.0,0.0,2.0,0.0,0,training_resp,,179.352580586332,19.7638483596966,2.0,,right,silver,0.0,73,2,right,2022_Feb_25_1240,habits_v_MRI,5,40,1,5,30,15,5,15,30,30,60,RR,60.0789107741187
9,0,resp1,stim/right_resp_img.png,"[-0.5, 0]",right,stim/silver_coin.png,silver,,,,,training,,,silver,deval,,,,,0,0,0,0,1.0,0.0,2.0,0.0,0,training_resp,,179.652633341495,20.0638539020438,2.0,,right,silver,0.0,73,2,right,2022_Feb_25_1240,habits_v_MRI,5,40,1,5,30,15,5,15,30,30,60,RR,60.0789107741187
9,0,resp1,stim/right_resp_img.png,"[-0.5, 0]",right,stim/silver_coin.png,silver,,,,,training,,,silver,deval,,,,,0,0,0,0,1.0,0.0,2.0,0.0,0,training_resp,,179.919218133669,20.330436934717,2.0,,right,silver,0.0,73,2,right,2022_Feb_25_1240,habits_v_MRI,5,40,1,5,30,15,5,15,30,30,60,RR,60.0789107741187
9,0,resp1,stim/right_resp_img.png,"[-0.5, 0]",right,stim/silver_coin.png,silver,,,,,training,,,silver,deval,,,,,0,0,0,0,1.0,0.0,2.0,0.0,0,training_resp,,180.235829948448,20.6470865784213,2.0,,right,silver,0.0,73,2,right,2022_Feb_25_1240,habits_v_MRI,5,40,1,5,30,15,5,15,30,30,60,RR,60.0789107741187
9,0,resp1,stim/right_resp_img.png,"[-0.5, 0]",right,stim/silver_coin.png,silver,,,,,training,,,silver,deval,,,,,0,0,0,0,1.0,0.0,2.0,0.0,0,training_resp,,180.552492201794,20.9637429667637,2.0,,right,silver,0.0,73,2,right,2022_Feb_25_1240,habits_v_MRI,5,40,1,5,30,15,5,15,30,30,60,RR,60.0789107741187
9,0,resp1,stim/right_resp_img.png,"[-0.5, 0]",right,stim/silver_coin.png,silver,,,,,training,,,silver,deval,,,,,0,0,0,0,1.0,0.0,2.0,0.0,0,training_resp,,180.835778864916,21.247043412528,2.0,,right,silver,0.0,73,2,right,2022_Feb_25_1240,habits_v_MRI,5,40,1,5,30,15,5,15,30,30,60,RR,60.0789107741187
9,0,resp1,stim/right_resp_img.png,"[-0.5, 0]",right,stim/silver_coin.png,silver,,,,,training,,,silver,deval,,,,,0,0,0,0,1.0,0.0,2.0,0.0,0,training_resp,,181.119054384646,21.5303127741208,2.0,15.0,right,silver,1.0,73,2,right,2022_Feb_25_1240,habits_v_MRI,5,40,1,5,30,15,5,15,30,30,60,RR,60.0789107741187
9,0,resp1,stim/right_resp_img.png,"[-0.5, 0]",right,stim/silver_coin.png,silver,,,,,training,,,silver,deval,,,,,0,0,0,0,1.0,0.0,2.0,0.0,0,training_resp,,181.68574412982,22.0969987070421,2.0,,right,silver,0.0,73,2,right,2022_Feb_25_1240,habits_v_MRI,5,40,1,5,30,15,5,15,30,30,60,RR,60.0789107741187
9,0,resp1,stim/right_resp_img.png,"[-0.5, 0]",right,stim/silver_coin.png,silver,,,,,training,,,silver,deval,,,,,0,0,0,0,1.0,0.0,2.0,0.0,0,training_resp,,182.002314596903,22.4135767985135,2.0,,right,silver,0.0,73,2,right,2022_Feb_25_1240,habits_v_MRI,5,40,1,5,30,15,5,15,30,30,60,RR,60.0789107741187
9,0,resp1,stim/right_resp_img.png,"[-0.5, 0]",right,stim/silver_coin.png,silver,,,,,training,,,silver,deval,,,,,0,0,0,0,1.0,0.0,2.0,0.0,0,training_resp,,182.319007641054,22.7302672035294,2.0,,right,silver,0.0,73,2,right,2022_Feb_25_1240,habits_v_MRI,5,40,1,5,30,15,5,15,30,30,60,RR,60.0789107741187
9,0,resp1,stim/right_resp_img.png,"[-0.5, 0]",right,stim/silver_coin.png,silver,,,,,training,,,silver,deval,,,,,0,0,0,0,1.0,0.0,2.0,0.0,0,training_resp,,182.585934065748,22.9969367439626,2.0,,right,silver,0.0,73,2,right,2022_Feb_25_1240,habits_v_MRI,5,40,1,5,30,15,5,15,30,30,60,RR,60.0789107741187
9,0,resp1,stim/right_resp_img.png,"[-0.5, 0]",right,stim/silver_coin.png,silver,,,,,training,,,silver,deval,,,,,0,0,0,0,1.0,0.0,2.0,0.0,0,training_resp,,182.868949768832,23.2802046393044,2.0,,right,silver,0.0,73,2,right,2022_Feb_25_1240,habits_v_MRI,5,40,1,5,30,15,5,15,30,30,60,RR,60.0789107741187
9,0,resp1,stim/right_resp_img.png,"[-0.5, 0]",right,stim/silver_coin.png,silver,,,,,training,,,silver,deval,,,,,0,0,0,0,1.0,0.0,2.0,0.0,0,training_resp,,183.185842514155,23.5968534032581,2.0,,right,silver,0.0,73,2,right,2022_Feb_25_1240,habits_v_MRI,5,40,1,5,30,15,5,15,30,30,60,RR,60.0789107741187
9,0,resp1,stim/right_resp_img.png,"[-0.5, 0]",right,stim/silver_coin.png,silver,,,,,training,,,silver,deval,,,,,0,0,0,0,1.0,0.0,2.0,0.0,0,training_resp,,183.485620497027,23.8968853378901,2.0,,right,silver,0.0,73,2,right,2022_Feb_25_1240,habits_v_MRI,5,40,1,5,30,15,5,15,30,30,60,RR,60.0789107741187
9,0,resp1,stim/right_resp_img.png,"[-0.5, 0]",right,stim/silver_coin.png,silver,,,,,training,,,silver,deval,,,,,0,0,0,0,1.0,0.0,2.0,0.0,0,training_resp,,183.768932379317,24.1801866632886,2.0,,right,silver,0.0,73,2,right,2022_Feb_25_1240,habits_v_MRI,5,40,1,5,30,15,5,15,30,30,60,RR,60.0789107741187
9,0,resp1,stim/right_resp_img.png,"[-0.5, 0]",right,stim/silver_coin.png,silver,,,,,training,,,silver,deval,,,,,0,0,0,0,1.0,0.0,2.0,0.0,0,training_resp,,184.068867249182,24.4801265184069,2.0,,right,silver,0.0,73,2,right,2022_Feb_25_1240,habits_v_MRI,5,40,1,5,30,15,5,15,30,30,60,RR,60.0789107741187
9,0,resp1,stim/right_resp_img.png,"[-0.5, 0]",right,stim/silver_coin.png,silver,,,,,training,,,silver,deval,,,,,0,0,0,0,1.0,0.0,2.0,0.0,0,training_resp,,184.369309436064,24.7805616672849,2.0,,right,silver,0.0,73,2,right,2022_Feb_25_1240,habits_v_MRI,5,40,1,5,30,15,5,15,30,30,60,RR,60.0789107741187
9,0,resp1,stim/right_resp_img.png,"[-0.5, 0]",right,stim/silver_coin.png,silver,,,,,training,,,silver,deval,,,,,0,0,0,0,1.0,0.0,2.0,0.0,0,training_resp,,184.66890384641,25.0801249934593,2.0,,right,silver,0.0,73,2,right,2022_Feb_25_1240,habits_v_MRI,5,40,1,5,30,15,5,15,30,30,60,RR,60.0789107741187
9,0,resp1,stim/right_resp_img.png,"[-0.5, 0]",right,stim/silver_coin.png,silver,,,,,training,,,silver,deval,,,,,0,0,0,0,1.0,0.0,2.0,0.0,0,training_resp,,184.968848393415,25.3801067828899,2.0,,right,silver,0.0,73,2,right,2022_Feb_25_1240,habits_v_MRI,5,40,1,5,30,15,5,15,30,30,60,RR,60.0789107741187
9,0,resp1,stim/right_resp_img.png,"[-0.5, 0]",right,stim/silver_coin.png,silver,,,,,training,,,silver,deval,,,,,0,0,0,0,1.0,0.0,2.0,0.0,0,training_resp,,185.285449064919,25.6967109732795,2.0,,right,silver,0.0,73,2,right,2022_Feb_25_1240,habits_v_MRI,5,40,1,5,30,15,5,15,30,30,60,RR,60.0789107741187
9,0,resp1,stim/right_resp_img.png,"[-0.5, 0]",right,stim/silver_coin.png,silver,,,,,training,,,silver,deval,,,,,0,0,0,0,1.0,0.0,2.0,0.0,0,training_resp,,185.568832206191,25.9800826780265,2.0,,right,silver,0.0,73,2,right,2022_Feb_25_1240,habits_v_MRI,5,40,1,5,30,15,5,15,30,30,60,RR,60.0789107741187
9,0,resp1,stim/right_resp_img.png,"[-0.5, 0]",right,stim/silver_coin.png,silver,,,,,training,,,silver,deval,,,,,0,0,0,0,1.0,0.0,2.0,0.0,0,training_resp,,185.885404726025,26.2966595964972,2.0,10.0,right,silver,1.0,73,2,right,2022_Feb_25_1240,habits_v_MRI,5,40,1,5,30,15,5,15,30,30,60,RR,60.0789107741187
9,0,resp1,stim/right_resp_img.png,"[-0.5, 0]",right,stim/silver_coin.png,silver,,,,,training,,,silver,deval,,,,,0,0,0,0,1.0,0.0,2.0,0.0,0,training_resp,,186.485539560905,26.8966917949729,2.0,,right,silver,0.0,73,2,right,2022_Feb_25_1240,habits_v_MRI,5,40,1,5,30,15,5,15,30,30,60,RR,60.0789107741187
9,0,resp1,stim/right_resp_img.png,"[-0.5, 0]",right,stim/silver_coin.png,silver,,,,,training,,,silver,deval,,,,,0,0,0,0,1.0,0.0,2.0,0.0,0,training_resp,,186.752100306796,27.1633630949073,2.0,,right,silver,0.0,73,2,right,2022_Feb_25_1240,habits_v_MRI,5,40,1,5,30,15,5,15,30,30,60,RR,60.0789107741187
9,0,resp1,stim/right_resp_img.png,"[-0.5, 0]",right,stim/silver_coin.png,silver,,,,,training,,,silver,deval,,,,,0,0,0,0,1.0,0.0,2.0,0.0,0,training_resp,,187.052142798202,27.4633912172867,2.0,,right,silver,0.0,73,2,right,2022_Feb_25_1240,habits_v_MRI,5,40,1,5,30,15,5,15,30,30,60,RR,60.0789107741187
9,0,resp1,stim/right_resp_img.png,"[-0.5, 0]",right,stim/silver_coin.png,silver,,,,,training,,,silver,deval,,,,,0,0,0,0,1.0,0.0,2.0,0.0,0,training_resp,,187.352026056731,27.7632853258401,2.0,,right,silver,0.0,73,2,right,2022_Feb_25_1240,habits_v_MRI,5,40,1,5,30,15,5,15,30,30,60,RR,60.0789107741187
9,0,resp1,stim/right_resp_img.png,"[-0.5, 0]",right,stim/silver_coin.png,silver,,,,,training,,,silver,deval,,,,,0,0,0,0,1.0,0.0,2.0,0.0,0,training_resp,,187.635769011802,28.0466315180529,2.0,,right,silver,0.0,73,2,right,2022_Feb_25_1240,habits_v_MRI,5,40,1,5,30,15,5,15,30,30,60,RR,60.0789107741187
9,0,resp1,stim/right_resp_img.png,"[-0.5, 0]",right,stim/silver_coin.png,silver,,,,,training,,,silver,deval,,,,,0,0,0,0,1.0,0.0,2.0,0.0,0,training_resp,,187.91862196289,28.3298780063633,2.0,,right,silver,0.0,73,2,right,2022_Feb_25_1240,habits_v_MRI,5,40,1,5,30,15,5,15,30,30,60,RR,60.0789107741187
9,0,resp1,stim/right_resp_img.png,"[-0.5, 0]",right,stim/silver_coin.png,silver,,,,,training,,,silver,deval,,,,,0,0,0,0,1.0,0.0,2.0,0.0,0,training_resp,,188.185564809362,28.5965880149743,2.0,,right,silver,0.0,73,2,right,2022_Feb_25_1240,habits_v_MRI,5,40,1,5,30,15,5,15,30,30,60,RR,60.0789107741187
9,0,resp1,stim/right_resp_img.png,"[-0.5, 0]",right,stim/silver_coin.png,silver,,,,,training,,,silver,deval,,,,,0,0,0,0,1.0,0.0,2.0,0.0,0,training_resp,,188.468619221007,28.8798802497331,2.0,,right,silver,0.0,73,2,right,2022_Feb_25_1240,habits_v_MRI,5,40,1,5,30,15,5,15,30,30,60,RR,60.0789107741187
9,0,resp1,stim/right_resp_img.png,"[-0.5, 0]",right,stim/silver_coin.png,silver,,,,,training,,,silver,deval,,,,,0,0,0,0,1.0,0.0,2.0,0.0,0,training_resp,,188.735257384134,29.1465137208579,2.0,,right,silver,0.0,73,2,right,2022_Feb_25_1240,habits_v_MRI,5,40,1,5,30,15,5,15,30,30,60,RR,60.0789107741187
9,0,resp1,stim/right_resp_img.png,"[-0.5, 0]",right,stim/silver_coin.png,silver,,,,,training,,,silver,deval,,,,,0,0,0,0,1.0,0.0,2.0,0.0,0,training_resp,,189.018608268234,29.4298695902107,2.0,20.0,right,silver,1.0,73,2,right,2022_Feb_25_1240,habits_v_MRI,5,40,1,5,30,15,5,15,30,30,60,RR,60.0789107741187
9,0,resp1,stim/right_resp_img.png,"[-0.5, 0]",right,stim/silver_coin.png,silver,,,,,training,,,silver,deval,,,,,0,0,0,0,1.0,0.0,2.0,0.0,0,training_resp,,189.568620188744,29.9798642090755,2.0,,right,silver,0.0,73,2,right,2022_Feb_25_1240,habits_v_MRI,5,40,1,5,30,15,5,15,30,30,60,RR,60.0789107741187
9,0,resp1,stim/right_resp_img.png,"[-0.5, 0]",right,stim/silver_coin.png,silver,,,,,training,,,silver,deval,,,,,0,0,0,0,1.0,0.0,2.0,0.0,0,training_resp,,189.835311722825,30.2465730446856,2.0,,right,silver,0.0,73,2,right,2022_Feb_25_1240,habits_v_MRI,5,40,1,5,30,15,5,15,30,30,60,RR,60.0789107741187
9,0,resp1,stim/right_resp_img.png,"[-0.5, 0]",right,stim/silver_coin.png,silver,,,,,training,,,silver,deval,,,,,0,0,0,0,1.0,0.0,2.0,0.0,0,training_resp,,190.118586069555,30.5298444589134,2.0,,right,silver,0.0,73,2,right,2022_Feb_25_1240,habits_v_MRI,5,40,1,5,30,15,5,15,30,30,60,RR,60.0789107741187
9,0,resp1,stim/right_resp_img.png,"[-0.5, 0]",right,stim/silver_coin.png,silver,,,,,training,,,silver,deval,,,,,0,0,0,0,1.0,0.0,2.0,0.0,0,training_resp,,190.418772251927,30.829803961562,2.0,,right,silver,0.0,73,2,right,2022_Feb_25_1240,habits_v_MRI,5,40,1,5,30,15,5,15,30,30,60,RR,60.0789107741187
9,0,resp1,stim/right_resp_img.png,"[-0.5, 0]",right,stim/silver_coin.png,silver,,,,,training,,,silver,deval,,,,,0,0,0,0,1.0,0.0,2.0,0.0,0,training_resp,,190.718787178164,31.1297992402688,2.0,,right,silver,0.0,73,2,right,2022_Feb_25_1240,habits_v_MRI,5,40,1,5,30,15,5,15,30,30,60,RR,60.0789107741187
9,0,resp1,stim/right_resp_img.png,"[-0.5, 0]",right,stim/silver_coin.png,silver,,,,,training,,,silver,deval,,,,,0,0,0,0,1.0,0.0,2.0,0.0,0,training_resp,,190.985212150845,31.396433297894,2.0,,right,silver,0.0,73,2,right,2022_Feb_25_1240,habits_v_MRI,5,40,1,5,30,15,5,15,30,30,60,RR,60.0789107741187
9,0,resp1,stim/right_resp_img.png,"[-0.5, 0]",right,stim/silver_coin.png,silver,,,,,training,,,silver,deval,,,,,0,0,0,0,1.0,0.0,2.0,0.0,0,training_resp,,191.268516115495,31.6797759711044,2.0,,right,silver,0.0,73,2,right,2022_Feb_25_1240,habits_v_MRI,5,40,1,5,30,15,5,15,30,30,60,RR,60.0789107741187
9,0,resp1,stim/right_resp_img.png,"[-0.5, 0]",right,stim/silver_coin.png,silver,,,,,training,,,silver,deval,,,,,0,0,0,0,1.0,0.0,2.0,0.0,0,training_resp,,191.535073929001,31.9463282129727,2.0,,right,silver,0.0,73,2,right,2022_Feb_25_1240,habits_v_MRI,5,40,1,5,30,15,5,15,30,30,60,RR,60.0789107741187
9,0,resp1,stim/right_resp_img.png,"[-0.5, 0]",right,stim/silver_coin.png,silver,,,,,training,,,silver,deval,,,,,0,0,0,0,1.0,0.0,2.0,0.0,0,training_resp,,191.78507561516,32.196334591019,2.0,,right,silver,0.0,73,2,right,2022_Feb_25_1240,habits_v_MRI,5,40,1,5,30,15,5,15,30,30,60,RR,60.0789107741187
9,0,resp1,stim/right_resp_img.png,"[-0.5, 0]",right,stim/silver_coin.png,silver,,,,,training,,,silver,deval,,,,,0,0,0,0,1.0,0.0,2.0,0.0,0,training_resp,,192.068464328069,32.479724183795,2.0,,right,silver,0.0,73,2,right,2022_Feb_25_1240,habits_v_MRI,5,40,1,5,30,15,5,15,30,30,60,RR,60.0789107741187
9,0,resp1,stim/right_resp_img.png,"[-0.5, 0]",right,stim/silver_coin.png,silver,,,,,training,,,silver,deval,,,,,0,0,0,0,1.0,0.0,2.0,0.0,0,training_resp,,192.368481893558,32.7797408695333,2.0,,right,silver,0.0,73,2,right,2022_Feb_25_1240,habits_v_MRI,5,40,1,5,30,15,5,15,30,30,60,RR,60.0789107741187
9,0,resp1,stim/right_resp_img.png,"[-0.5, 0]",right,stim/silver_coin.png,silver,,,,,training,,,silver,deval,,,,,0,0,0,0,1.0,0.0,2.0,0.0,0,training_resp,,192.668637285009,33.0796601973707,2.0,,right,silver,0.0,73,2,right,2022_Feb_25_1240,habits_v_MRI,5,40,1,5,30,15,5,15,30,30,60,RR,60.0789107741187
9,0,resp1,stim/right_resp_img.png,"[-0.5, 0]",right,stim/silver_coin.png,silver,,,,,training,,,silver,deval,,,,,0,0,0,0,1.0,0.0,2.0,0.0,0,training_resp,,192.918403787306,33.3296589510282,2.0,,right,silver,0.0,73,2,right,2022_Feb_25_1240,habits_v_MRI,5,40,1,5,30,15,5,15,30,30,60,RR,60.0789107741187
9,0,resp1,stim/right_resp_img.png,"[-0.5, 0]",right,stim/silver_coin.png,silver,,,,,training,,,silver,deval,,,,,0,0,0,0,1.0,0.0,2.0,0.0,0,training_resp,,193.20171332371,33.612970246817,2.0,,right,silver,0.0,73,2,right,2022_Feb_25_1240,habits_v_MRI,5,40,1,5,30,15,5,15,30,30,60,RR,60.0789107741187
9,0,resp1,stim/right_resp_img.png,"[-0.5, 0]",right,stim/silver_coin.png,silver,,,,,training,,,silver,deval,,,,,0,0,0,0,1.0,0.0,2.0,0.0,0,training_resp,,193.484953947016,33.8962032458512,2.0,,right,silver,0.0,73,2,right,2022_Feb_25_1240,habits_v_MRI,5,40,1,5,30,15,5,15,30,30,60,RR,60.0789107741187
9,0,resp1,stim/right_resp_img.png,"[-0.5, 0]",right,stim/silver_coin.png,silver,,,,,training,,,silver,deval,,,,,0,0,0,0,1.0,0.0,2.0,0.0,0,training_resp,,193.718386309803,34.1296359017724,2.0,,right,silver,0.0,73,2,right,2022_Feb_25_1240,habits_v_MRI,5,40,1,5,30,15,5,15,30,30,60,RR,60.0789107741187
9,0,resp1,stim/right_resp_img.png,"[-0.5, 0]",right,stim/silver_coin.png,silver,,,,,training,,,silver,deval,,,,,0,0,0,0,1.0,0.0,2.0,0.0,0,training_resp,,194.034948565997,34.4462072486058,2.0,,right,silver,0.0,73,2,right,2022_Feb_25_1240,habits_v_MRI,5,40,1,5,30,15,5,15,30,30,60,RR,60.0789107741187
9,0,resp1,stim/right_resp_img.png,"[-0.5, 0]",right,stim/silver_coin.png,silver,,,,,training,,,silver,deval,,,,,0,0,0,0,1.0,0.0,2.0,0.0,0,training_resp,,194.284942334401,34.6961998441257,2.0,,right,silver,0.0,73,2,right,2022_Feb_25_1240,habits_v_MRI,5,40,1,5,30,15,5,15,30,30,60,RR,60.0789107741187
9,0,resp1,stim/right_resp_img.png,"[-0.5, 0]",right,stim/silver_coin.png,silver,,,,,training,,,silver,deval,,,,,0,0,0,0,1.0,0.0,2.0,0.0,0,training_resp,,194.584937906475,34.9961872051936,2.0,,right,silver,0.0,73,2,right,2022_Feb_25_1240,habits_v_MRI,5,40,1,5,30,15,5,15,30,30,60,RR,60.0789107741187
9,0,resp1,stim/right_resp_img.png,"[-0.5, 0]",right,stim/silver_coin.png,silver,,,,,training,,,silver,deval,,,,,0,0,0,0,1.0,0.0,2.0,0.0,0,training_resp,,194.835044574924,35.2461589801824,2.0,7.0,right,silver,1.0,73,2,right,2022_Feb_25_1240,habits_v_MRI,5,40,1,5,30,15,5,15,30,30,60,RR,60.0789107741187
9,0,resp1,stim/right_resp_img.png,"[-0.5, 0]",right,stim/silver_coin.png,silver,,,,,training,,,silver,deval,,,,,0,0,0,0,1.0,0.0,2.0,0.0,0,training_resp,,195.418226226349,35.8294831495732,2.0,,right,silver,0.0,73,2,right,2022_Feb_25_1240,habits_v_MRI,5,40,1,5,30,15,5,15,30,30,60,RR,60.0789107741187
9,0,resp1,stim/right_resp_img.png,"[-0.5, 0]",right,stim/silver_coin.png,silver,,,,,training,,,silver,deval,,,,,0,0,0,0,1.0,0.0,2.0,0.0,0,training_resp,,195.66826779407,36.0794839559821,2.0,,right,silver,0.0,73,2,right,2022_Feb_25_1240,habits_v_MRI,5,40,1,5,30,15,5,15,30,30,60,RR,60.0789107741187
9,0,resp1,stim/right_resp_img.png,"[-0.5, 0]",right,stim/silver_coin.png,silver,,,,,training,,,silver,deval,,,,,0,0,0,0,1.0,0.0,2.0,0.0,0,training_resp,,195.951553284191,36.362812553416,2.0,,right,silver,0.0,73,2,right,2022_Feb_25_1240,habits_v_MRI,5,40,1,5,30,15,5,15,30,30,60,RR,60.0789107741187
9,0,resp1,stim/right_resp_img.png,"[-0.5, 0]",right,stim/silver_coin.png,silver,,,,,training,,,silver,deval,,,,,0,0,0,0,1.0,0.0,2.0,0.0,0,training_resp,,196.201537082321,36.6127954717958,2.0,,right,silver,0.0,73,2,right,2022_Feb_25_1240,habits_v_MRI,5,40,1,5,30,15,5,15,30,30,60,RR,60.0789107741187
9,0,resp1,stim/right_resp_img.png,"[-0.5, 0]",right,stim/silver_coin.png,silver,,,,,training,,,silver,deval,,,,,0,0,0,0,1.0,0.0,2.0,0.0,0,training_resp,,196.468233015039,36.8794078291394,2.0,,right,silver,0.0,73,2,right,2022_Feb_25_1240,habits_v_MRI,5,40,1,5,30,15,5,15,30,30,60,RR,60.0789107741187
9,0,resp1,stim/right_resp_img.png,"[-0.5, 0]",right,stim/silver_coin.png,silver,,,,,training,,,silver,deval,,,,,0,0,0,0,1.0,0.0,2.0,0.0,0,training_resp,,196.718105086125,37.1293640621006,2.0,,right,silver,0.0,73,2,right,2022_Feb_25_1240,habits_v_MRI,5,40,1,5,30,15,5,15,30,30,60,RR,60.0789107741187
9,0,resp1,stim/right_resp_img.png,"[-0.5, 0]",right,stim/silver_coin.png,silver,,,,,training,,,silver,deval,,,,,0,0,0,0,1.0,0.0,2.0,0.0,0,ITI_start,20.0,196.819324494223,37.2293914220063,,,,,,73,2,right,2022_Feb_25_1240,habits_v_MRI,5,40,1,5,30,15,5,15,30,30,60,RR,60.0789107741187
9,1,resp2,stim/left_resp_img.png,"[0.5, 0]",left,stim/gold_coin.png,silver,,,,,training,,,gold,val,,,,,0,0,0,0,1.0,1.0,3.0,1.0,0,training_period_start,52.5,216.85342616355,0.0,3.0,18.0,,,,73,2,right,2022_Feb_25_1240,habits_v_MRI,5,40,1,5,30,15,5,15,30,30,60,RR,60.0789107741187
9,1,resp2,stim/left_resp_img.png,"[0.5, 0]",left,stim/gold_coin.png,silver,,,,,training,,,gold,val,,,,,0,0,0,0,1.0,1.0,3.0,1.0,0,training_resp,,218.333372628316,1.49812864558771,3.0,,left,gold,0.0,73,2,right,2022_Feb_25_1240,habits_v_MRI,5,40,1,5,30,15,5,15,30,30,60,RR,60.0789107741187
