list,trial_num_python,condition,stimulus,position,corrResp,coin_img,devalued_coin,stimulus_choice1,stimulus_choice2,position1,position2,phase,corrResp1,corrResp2,outcome,cond_val,outcome_choice1,outcome_choice2,cond_val1,cond_val2,blockLoop.thisRepN,blockLoop.thisTrialN,blockLoop.thisN,blockLoop.thisIndex,trialLoop.thisRepN,trialLoop.thisTrialN,trialLoop.thisN,trialLoop.thisIndex,choice_trialLoop.thisRepN,choice_trialLoop.thisTrialN,choice_trialLoop.thisN,choice_trialLoop.thisIndex,contingency_trialLoop.thisRepN,contingency_trialLoop.thisTrialN,contingency_trialLoop.thisN,contingency_trialLoop.thisIndex,run,event,duration,globalClock_t,routineClock_t,trial,nResp_untilRnf,resp,selected_coin,wasRnf,participant,task_ordering,hand,date,expName,n_repeat_training,credits_per_rnf,cost_response,min_resp_bet_rnf,max_resp_bet_rnf,mean_resp_bet_rnf,sigma_resp_bet_rnf,min_ITI,max_ITI,min_trial_duration,max_trial_duration,schedule,frameRate,Unnamed: 65
13.0,0.0,resp1,stim/left_resp_img.png,"[0.5, 0]",left,stim/gold_coin.png,silver,,,,,training,,,gold,val,,,,,0.0,0.0,0.0,0.0,0.0,0.0,0.0,0.0,,,,,,,,,0.0,instr_before_block,6.0,0.0056754501129034,,,,,,,141.0,1.0,right,2022_Aug_01_1040,habits_v_MRI,5.0,40.0,1.0,5.0,30.0,15.0,5.0,15.0,30.0,30.0,60.0,RR,59.96743238193445,
13.0,0.0,resp1,stim/left_resp_img.png,"[0.5, 0]",left,stim/gold_coin.png,silver,,,,,training,,,gold,val,,,,,0.0,0.0,0.0,0.0,0.0,0.0,0.0,0.0,,,,,,,,,0.0,training_period_start,60.0,6.0478847408958245,0.0,0.0,18.0,,,,141.0,1.0,right,2022_Aug_01_1040,habits_v_MRI,5.0,40.0,1.0,5.0,30.0,15.0,5.0,15.0,30.0,30.0,60.0,RR,59.96743238193445,
13.0,0.0,resp1,stim/left_resp_img.png,"[0.5, 0]",left,stim/gold_coin.png,silver,,,,,training,,,gold,val,,,,,0.0,0.0,0.0,0.0,0.0,0.0,0.0,0.0,,,,,,,,,0.0,training_resp,,7.17750399839133,1.148877490166342,0.0,,left,gold,0.0,141.0,1.0,right,2022_Aug_01_1040,habits_v_MRI,5.0,40.0,1.0,5.0,30.0,15.0,5.0,15.0,30.0,30.0,60.0,RR,59.96743238193445,
13.0,0.0,resp1,stim/left_resp_img.png,"[0.5, 0]",left,stim/gold_coin.png,silver,,,,,training,,,gold,val,,,,,0.0,0.0,0.0,0.0,0.0,0.0,0.0,0.0,,,,,,,,,0.0,training_resp,,12.077035569935106,6.048538968956564,0.0,,left,gold,0.0,141.0,1.0,right,2022_Aug_01_1040,habits_v_MRI,5.0,40.0,1.0,5.0,30.0,15.0,5.0,15.0,30.0,30.0,60.0,RR,59.96743238193445,
13.0,0.0,resp1,stim/left_resp_img.png,"[0.5, 0]",left,stim/gold_coin.png,silver,,,,,training,,,gold,val,,,,,0.0,0.0,0.0,0.0,0.0,0.0,0.0,0.0,,,,,,,,,0.0,training_resp,,12.893587802915135,6.865136654785601,0.0,,left,gold,0.0,141.0,1.0,right,2022_Aug_01_1040,habits_v_MRI,5.0,40.0,1.0,5.0,30.0,15.0,5.0,15.0,30.0,30.0,60.0,RR,59.96743238193445,
13.0,0.0,resp1,stim/left_resp_img.png,"[0.5, 0]",left,stim/gold_coin.png,silver,,,,,training,,,gold,val,,,,,0.0,0.0,0.0,0.0,0.0,0.0,0.0,0.0,,,,,,,,,0.0,training_resp,,18.959964822395705,12.931386406242382,0.0,,left,gold,0.0,141.0,1.0,right,2022_Aug_01_1040,habits_v_MRI,5.0,40.0,1.0,5.0,30.0,15.0,5.0,15.0,30.0,30.0,60.0,RR,59.96743238193445,
13.0,0.0,resp1,stim/left_resp_img.png,"[0.5, 0]",left,stim/gold_coin.png,silver,,,,,training,,,gold,val,,,,,0.0,0.0,0.0,0.0,0.0,0.0,0.0,0.0,,,,,,,,,0.0,training_resp,,25.092839971301142,19.06433281351929,0.0,,left,gold,0.0,141.0,1.0,right,2022_Aug_01_1040,habits_v_MRI,5.0,40.0,1.0,5.0,30.0,15.0,5.0,15.0,30.0,30.0,60.0,RR,59.96743238193445,
13.0,0.0,resp1,stim/left_resp_img.png,"[0.5, 0]",left,stim/gold_coin.png,silver,,,,,training,,,gold,val,,,,,0.0,0.0,0.0,0.0,0.0,0.0,0.0,0.0,,,,,,,,,0.0,training_resp,,27.7926539957698,21.76410930271959,0.0,,left,gold,0.0,141.0,1.0,right,2022_Aug_01_1040,habits_v_MRI,5.0,40.0,1.0,5.0,30.0,15.0,5.0,15.0,30.0,30.0,60.0,RR,59.96743238193445,
13.0,0.0,resp1,stim/left_resp_img.png,"[0.5, 0]",left,stim/gold_coin.png,silver,,,,,training,,,gold,val,,,,,0.0,0.0,0.0,0.0,0.0,0.0,0.0,0.0,,,,,,,,,0.0,training_resp,,35.925347333191894,29.89685659710085,0.0,,left,gold,0.0,141.0,1.0,right,2022_Aug_01_1040,habits_v_MRI,5.0,40.0,1.0,5.0,30.0,15.0,5.0,15.0,30.0,30.0,60.0,RR,59.96743238193445,
13.0,0.0,resp1,stim/left_resp_img.png,"[0.5, 0]",left,stim/gold_coin.png,silver,,,,,training,,,gold,val,,,,,0.0,0.0,0.0,0.0,0.0,0.0,0.0,0.0,,,,,,,,,0.0,training_resp,,38.52513338215067,32.49659602020984,0.0,,left,gold,0.0,141.0,1.0,right,2022_Aug_01_1040,habits_v_MRI,5.0,40.0,1.0,5.0,30.0,15.0,5.0,15.0,30.0,30.0,60.0,RR,59.96743238193445,
13.0,0.0,resp1,stim/left_resp_img.png,"[0.5, 0]",left,stim/gold_coin.png,silver,,,,,training,,,gold,val,,,,,0.0,0.0,0.0,0.0,0.0,0.0,0.0,0.0,,,,,,,,,0.0,training_resp,,64.32349977683043,58.29485244827811,0.0,,left,gold,0.0,141.0,1.0,right,2022_Aug_01_1040,habits_v_MRI,5.0,40.0,1.0,5.0,30.0,15.0,5.0,15.0,30.0,30.0,60.0,RR,59.96743238193445,
13.0,0.0,resp1,stim/left_resp_img.png,"[0.5, 0]",left,stim/gold_coin.png,silver,,,,,training,,,gold,val,,,,,0.0,0.0,0.0,0.0,0.0,0.0,0.0,0.0,,,,,,,,,0.0,ITI_start,23.333333333333336,65.70742048826651,59.67805295169819,,,,,,141.0,1.0,right,2022_Aug_01_1040,habits_v_MRI,5.0,40.0,1.0,5.0,30.0,15.0,5.0,15.0,30.0,30.0,60.0,RR,59.96743238193445,
13.0,1.0,resp2,stim/right_resp_img.png,"[-0.5, 0]",right,stim/silver_coin.png,silver,,,,,training,,,silver,deval,,,,,0.0,0.0,0.0,0.0,0.0,1.0,1.0,1.0,,,,,,,,,0.0,training_period_start,37.5,89.07596962692332,0.0,1.0,14.0,,,,141.0,1.0,right,2022_Aug_01_1040,habits_v_MRI,5.0,40.0,1.0,5.0,30.0,15.0,5.0,15.0,30.0,30.0,60.0,RR,59.96743238193445,
13.0,1.0,resp2,stim/right_resp_img.png,"[-0.5, 0]",right,stim/silver_coin.png,silver,,,,,training,,,silver,deval,,,,,0.0,0.0,0.0,0.0,0.0,1.0,1.0,1.0,,,,,,,,,0.0,training_resp,,90.17153764993418,1.114794878551038,1.0,,right,silver,0.0,141.0,1.0,right,2022_Aug_01_1040,habits_v_MRI,5.0,40.0,1.0,5.0,30.0,15.0,5.0,15.0,30.0,30.0,60.0,RR,59.96743238193445,
13.0,1.0,resp2,stim/right_resp_img.png,"[-0.5, 0]",right,stim/silver_coin.png,silver,,,,,training,,,silver,deval,,,,,0.0,0.0,0.0,0.0,0.0,1.0,1.0,1.0,,,,,,,,,0.0,training_resp,,93.37128041603135,4.314543216285529,1.0,,right,silver,0.0,141.0,1.0,right,2022_Aug_01_1040,habits_v_MRI,5.0,40.0,1.0,5.0,30.0,15.0,5.0,15.0,30.0,30.0,60.0,RR,59.96743238193445,
13.0,1.0,resp2,stim/right_resp_img.png,"[-0.5, 0]",right,stim/silver_coin.png,silver,,,,,training,,,silver,deval,,,,,0.0,0.0,0.0,0.0,0.0,1.0,1.0,1.0,,,,,,,,,0.0,training_resp,,97.17099661420798,8.114294017286738,1.0,,right,silver,0.0,141.0,1.0,right,2022_Aug_01_1040,habits_v_MRI,5.0,40.0,1.0,5.0,30.0,15.0,5.0,15.0,30.0,30.0,60.0,RR,59.96743238193445,
13.0,1.0,resp2,stim/right_resp_img.png,"[-0.5, 0]",right,stim/silver_coin.png,silver,,,,,training,,,silver,deval,,,,,0.0,0.0,0.0,0.0,0.0,1.0,1.0,1.0,,,,,,,,,0.0,training_resp,,98.70421034295578,9.64753179208492,1.0,,right,silver,0.0,141.0,1.0,right,2022_Aug_01_1040,habits_v_MRI,5.0,40.0,1.0,5.0,30.0,15.0,5.0,15.0,30.0,30.0,60.0,RR,59.96743238193445,
13.0,1.0,resp2,stim/right_resp_img.png,"[-0.5, 0]",right,stim/silver_coin.png,silver,,,,,training,,,silver,deval,,,,,0.0,0.0,0.0,0.0,0.0,1.0,1.0,1.0,,,,,,,,,0.0,training_resp,,99.53754612000192,10.480788393149853,1.0,,right,silver,0.0,141.0,1.0,right,2022_Aug_01_1040,habits_v_MRI,5.0,40.0,1.0,5.0,30.0,15.0,5.0,15.0,30.0,30.0,60.0,RR,59.96743238193445,
13.0,1.0,resp2,stim/right_resp_img.png,"[-0.5, 0]",right,stim/silver_coin.png,silver,,,,,training,,,silver,deval,,,,,0.0,0.0,0.0,0.0,0.0,1.0,1.0,1.0,,,,,,,,,0.0,training_resp,,100.85399952961598,11.797296053002356,1.0,,right,silver,0.0,141.0,1.0,right,2022_Aug_01_1040,habits_v_MRI,5.0,40.0,1.0,5.0,30.0,15.0,5.0,15.0,30.0,30.0,60.0,RR,59.96743238193445,
13.0,1.0,resp2,stim/right_resp_img.png,"[-0.5, 0]",right,stim/silver_coin.png,silver,,,,,training,,,silver,deval,,,,,0.0,0.0,0.0,0.0,0.0,1.0,1.0,1.0,,,,,,,,,0.0,training_resp,,104.13726589572616,15.080539546062935,1.0,,right,silver,0.0,141.0,1.0,right,2022_Aug_01_1040,habits_v_MRI,5.0,40.0,1.0,5.0,30.0,15.0,5.0,15.0,30.0,30.0,60.0,RR,59.96743238193445,
13.0,1.0,resp2,stim/right_resp_img.png,"[-0.5, 0]",right,stim/silver_coin.png,silver,,,,,training,,,silver,deval,,,,,0.0,0.0,0.0,0.0,0.0,1.0,1.0,1.0,,,,,,,,,0.0,training_resp,,107.78696446993854,18.7302099687804,1.0,,right,silver,0.0,141.0,1.0,right,2022_Aug_01_1040,habits_v_MRI,5.0,40.0,1.0,5.0,30.0,15.0,5.0,15.0,30.0,30.0,60.0,RR,59.96743238193445,
13.0,1.0,resp2,stim/right_resp_img.png,"[-0.5, 0]",right,stim/silver_coin.png,silver,,,,,training,,,silver,deval,,,,,0.0,0.0,0.0,0.0,0.0,1.0,1.0,1.0,,,,,,,,,0.0,training_resp,,111.60343136879963,22.546699154219823,1.0,,right,silver,0.0,141.0,1.0,right,2022_Aug_01_1040,habits_v_MRI,5.0,40.0,1.0,5.0,30.0,15.0,5.0,15.0,30.0,30.0,60.0,RR,59.96743238193445,
13.0,1.0,resp2,stim/right_resp_img.png,"[-0.5, 0]",right,stim/silver_coin.png,silver,,,,,training,,,silver,deval,,,,,0.0,0.0,0.0,0.0,0.0,1.0,1.0,1.0,,,,,,,,,0.0,ITI_start,21.666666666666668,126.23653935367474,37.17894969278132,,,,,,141.0,1.0,right,2022_Aug_01_1040,habits_v_MRI,5.0,40.0,1.0,5.0,30.0,15.0,5.0,15.0,30.0,30.0,60.0,RR,59.96743238193445,
13.0,0.0,resp1,stim/left_resp_img.png,"[0.5, 0]",left,stim/gold_coin.png,silver,,,,,training,,,gold,val,,,,,0.0,0.0,0.0,0.0,1.0,0.0,2.0,0.0,,,,,,,,,0.0,training_period_start,52.5,147.93853218326694,0.0,2.0,27.0,,,,141.0,1.0,right,2022_Aug_01_1040,habits_v_MRI,5.0,40.0,1.0,5.0,30.0,15.0,5.0,15.0,30.0,30.0,60.0,RR,59.96743238193445,
13.0,0.0,resp1,stim/left_resp_img.png,"[0.5, 0]",left,stim/gold_coin.png,silver,,,,,training,,,gold,val,,,,,0.0,0.0,0.0,0.0,1.0,0.0,2.0,0.0,,,,,,,,,0.0,training_resp,,149.38413038110593,1.4648942590283696,2.0,,left,gold,0.0,141.0,1.0,right,2022_Aug_01_1040,habits_v_MRI,5.0,40.0,1.0,5.0,30.0,15.0,5.0,15.0,30.0,30.0,60.0,RR,59.96743238193445,
13.0,0.0,resp1,stim/left_resp_img.png,"[0.5, 0]",left,stim/gold_coin.png,silver,,,,,training,,,gold,val,,,,,0.0,0.0,0.0,0.0,1.0,0.0,2.0,0.0,,,,,,,,,0.0,training_resp,,151.71724006679142,3.79802153937635,2.0,,left,gold,0.0,141.0,1.0,right,2022_Aug_01_1040,habits_v_MRI,5.0,40.0,1.0,5.0,30.0,15.0,5.0,15.0,30.0,30.0,60.0,RR,59.96743238193445,
13.0,0.0,resp1,stim/left_resp_img.png,"[0.5, 0]",left,stim/gold_coin.png,silver,,,,,training,,,gold,val,,,,,0.0,0.0,0.0,0.0,1.0,0.0,2.0,0.0,,,,,,,,,0.0,training_resp,,159.41680923226522,11.497521792451153,2.0,,left,gold,0.0,141.0,1.0,right,2022_Aug_01_1040,habits_v_MRI,5.0,40.0,1.0,5.0,30.0,15.0,5.0,15.0,30.0,30.0,60.0,RR,59.96743238193445,
13.0,0.0,resp1,stim/left_resp_img.png,"[0.5, 0]",left,stim/gold_coin.png,silver,,,,,training,,,gold,val,,,,,0.0,0.0,0.0,0.0,1.0,0.0,2.0,0.0,,,,,,,,,0.0,training_resp,,160.38343304616865,12.46413622252294,2.0,,left,gold,0.0,141.0,1.0,right,2022_Aug_01_1040,habits_v_MRI,5.0,40.0,1.0,5.0,30.0,15.0,5.0,15.0,30.0,30.0,60.0,RR,59.96743238193445,
13.0,0.0,resp1,stim/left_resp_img.png,"[0.5, 0]",left,stim/gold_coin.png,silver,,,,,training,,,gold,val,,,,,0.0,0.0,0.0,0.0,1.0,0.0,2.0,0.0,,,,,,,,,0.0,training_resp,,161.99991671860334,14.0806852884416,2.0,,left,gold,0.0,141.0,1.0,right,2022_Aug_01_1040,habits_v_MRI,5.0,40.0,1.0,5.0,30.0,15.0,5.0,15.0,30.0,30.0,60.0,RR,59.96743238193445,
13.0,0.0,resp1,stim/left_resp_img.png,"[0.5, 0]",left,stim/gold_coin.png,silver,,,,,training,,,gold,val,,,,,0.0,0.0,0.0,0.0,1.0,0.0,2.0,0.0,,,,,,,,,0.0,ITI_start,25.0,200.09823361365125,52.17806820041733,,,,,,141.0,1.0,right,2022_Aug_01_1040,habits_v_MRI,5.0,40.0,1.0,5.0,30.0,15.0,5.0,15.0,30.0,30.0,60.0,RR,59.96743238193445,
13.0,1.0,resp2,stim/right_resp_img.png,"[-0.5, 0]",right,stim/silver_coin.png,silver,,,,,training,,,silver,deval,,,,,0.0,0.0,0.0,0.0,1.0,1.0,3.0,1.0,,,,,,,,,0.0,training_period_start,30.0,225.1328153270588,0.0,3.0,19.0,,,,141.0,1.0,right,2022_Aug_01_1040,habits_v_MRI,5.0,40.0,1.0,5.0,30.0,15.0,5.0,15.0,30.0,30.0,60.0,RR,59.96743238193445,
13.0,1.0,resp2,stim/right_resp_img.png,"[-0.5, 0]",right,stim/silver_coin.png,silver,,,,,training,,,silver,deval,,,,,0.0,0.0,0.0,0.0,1.0,1.0,3.0,1.0,,,,,,,,,0.0,training_resp,,226.57891585235484,1.4646963191626128,3.0,,right,silver,0.0,141.0,1.0,right,2022_Aug_01_1040,habits_v_MRI,5.0,40.0,1.0,5.0,30.0,15.0,5.0,15.0,30.0,30.0,60.0,RR,59.96743238193445,
13.0,1.0,resp2,stim/right_resp_img.png,"[-0.5, 0]",right,stim/silver_coin.png,silver,,,,,training,,,silver,deval,,,,,0.0,0.0,0.0,0.0,1.0,1.0,3.0,1.0,,,,,,,,,0.0,training_resp,,228.86221975376247,3.748010484094266,3.0,,right,silver,0.0,141.0,1.0,right,2022_Aug_01_1040,habits_v_MRI,5.0,40.0,1.0,5.0,30.0,15.0,5.0,15.0,30.0,30.0,60.0,RR,59.96743238193445,
13.0,1.0,resp2,stim/right_resp_img.png,"[-0.5, 0]",right,stim/silver_coin.png,silver,,,,,training,,,silver,deval,,,,,0.0,0.0,0.0,0.0,1.0,1.0,3.0,1.0,,,,,,,,,0.0,training_resp,,229.6619529601012,4.547803805500735,3.0,,right,silver,0.0,141.0,1.0,right,2022_Aug_01_1040,habits_v_MRI,5.0,40.0,1.0,5.0,30.0,15.0,5.0,15.0,30.0,30.0,60.0,RR,59.96743238193445,
13.0,1.0,resp2,stim/right_resp_img.png,"[-0.5, 0]",right,stim/silver_coin.png,silver,,,,,training,,,silver,deval,,,,,0.0,0.0,0.0,0.0,1.0,1.0,3.0,1.0,,,,,,,,,0.0,ITI_start,15.0,254.79451668352704,29.679470787901664,,,,,,141.0,1.0,right,2022_Aug_01_1040,habits_v_MRI,5.0,40.0,1.0,5.0,30.0,15.0,5.0,15.0,30.0,30.0,60.0,RR,59.96743238193445,
13.0,0.0,resp1,stim/left_resp_img.png,"[0.5, 0]",left,stim/gold_coin.png,silver,,,,,training,,,gold,val,,,,,0.0,0.0,0.0,0.0,2.0,0.0,4.0,0.0,,,,,,,,,0.0,training_period_start,30.0,269.8298039427318,0.0,4.0,14.0,,,,141.0,1.0,right,2022_Aug_01_1040,habits_v_MRI,5.0,40.0,1.0,5.0,30.0,15.0,5.0,15.0,30.0,30.0,60.0,RR,59.96743238193445,
13.0,0.0,resp1,stim/left_resp_img.png,"[0.5, 0]",left,stim/gold_coin.png,silver,,,,,training,,,gold,val,,,,,0.0,0.0,0.0,0.0,2.0,0.0,4.0,0.0,,,,,,,,,0.0,training_resp,,271.3757670537743,1.5648237044515554,4.0,,left,gold,0.0,141.0,1.0,right,2022_Aug_01_1040,habits_v_MRI,5.0,40.0,1.0,5.0,30.0,15.0,5.0,15.0,30.0,30.0,60.0,RR,59.96743238193445,
13.0,0.0,resp1,stim/left_resp_img.png,"[0.5, 0]",left,stim/gold_coin.png,silver,,,,,training,,,gold,val,,,,,0.0,0.0,0.0,0.0,2.0,0.0,4.0,0.0,,,,,,,,,0.0,training_resp,,279.108563437243,9.29761979469913,4.0,,left,gold,0.0,141.0,1.0,right,2022_Aug_01_1040,habits_v_MRI,5.0,40.0,1.0,5.0,30.0,15.0,5.0,15.0,30.0,30.0,60.0,RR,59.96743238193445,
13.0,0.0,resp1,stim/left_resp_img.png,"[0.5, 0]",left,stim/gold_coin.png,silver,,,,,training,,,gold,val,,,,,0.0,0.0,0.0,0.0,2.0,0.0,4.0,0.0,,,,,,,,,0.0,ITI_start,30.0,299.491525239835,29.679649080411764,,,,,,141.0,1.0,right,2022_Aug_01_1040,habits_v_MRI,5.0,40.0,1.0,5.0,30.0,15.0,5.0,15.0,30.0,30.0,60.0,RR,59.96743238193445,
13.0,1.0,resp2,stim/right_resp_img.png,"[-0.5, 0]",right,stim/silver_coin.png,silver,,,,,training,,,silver,deval,,,,,0.0,0.0,0.0,0.0,2.0,1.0,5.0,1.0,,,,,,,,,0.0,training_period_start,45.0,329.5261521128414,0.0,5.0,26.0,,,,141.0,1.0,right,2022_Aug_01_1040,habits_v_MRI,5.0,40.0,1.0,5.0,30.0,15.0,5.0,15.0,30.0,30.0,60.0,RR,59.96743238193445,
13.0,1.0,resp2,stim/right_resp_img.png,"[-0.5, 0]",right,stim/silver_coin.png,silver,,,,,training,,,silver,deval,,,,,0.0,0.0,0.0,0.0,2.0,1.0,5.0,1.0,,,,,,,,,0.0,training_resp,,330.93846854925505,1.431235971947899,5.0,,right,silver,0.0,141.0,1.0,right,2022_Aug_01_1040,habits_v_MRI,5.0,40.0,1.0,5.0,30.0,15.0,5.0,15.0,30.0,30.0,60.0,RR,59.96743238193445,
13.0,1.0,resp2,stim/right_resp_img.png,"[-0.5, 0]",right,stim/silver_coin.png,silver,,,,,training,,,silver,deval,,,,,0.0,0.0,0.0,0.0,2.0,1.0,5.0,1.0,,,,,,,,,0.0,training_resp,,332.4381958320446,2.931250634166645,5.0,,right,silver,0.0,141.0,1.0,right,2022_Aug_01_1040,habits_v_MRI,5.0,40.0,1.0,5.0,30.0,15.0,5.0,15.0,30.0,30.0,60.0,RR,59.96743238193445,
13.0,1.0,resp2,stim/right_resp_img.png,"[-0.5, 0]",right,stim/silver_coin.png,silver,,,,,training,,,silver,deval,,,,,0.0,0.0,0.0,0.0,2.0,1.0,5.0,1.0,,,,,,,,,0.0,training_resp,,333.9713611754996,4.464399555930868,5.0,,right,silver,0.0,141.0,1.0,right,2022_Aug_01_1040,habits_v_MRI,5.0,40.0,1.0,5.0,30.0,15.0,5.0,15.0,30.0,30.0,60.0,RR,59.96743238193445,
13.0,1.0,resp2,stim/right_resp_img.png,"[-0.5, 0]",right,stim/silver_coin.png,silver,,,,,training,,,silver,deval,,,,,0.0,0.0,0.0,0.0,2.0,1.0,5.0,1.0,,,,,,,,,0.0,training_resp,,344.2372390345554,14.730308205645995,5.0,,right,silver,0.0,141.0,1.0,right,2022_Aug_01_1040,habits_v_MRI,5.0,40.0,1.0,5.0,30.0,15.0,5.0,15.0,30.0,30.0,60.0,RR,59.96743238193445,
13.0,1.0,resp2,stim/right_resp_img.png,"[-0.5, 0]",right,stim/silver_coin.png,silver,,,,,training,,,silver,deval,,,,,0.0,0.0,0.0,0.0,2.0,1.0,5.0,1.0,,,,,,,,,0.0,training_resp,,354.0370763426181,24.52985666805762,5.0,,right,silver,0.0,141.0,1.0,right,2022_Aug_01_1040,habits_v_MRI,5.0,40.0,1.0,5.0,30.0,15.0,5.0,15.0,30.0,30.0,60.0,RR,59.96743238193445,
13.0,1.0,resp2,stim/right_resp_img.png,"[-0.5, 0]",right,stim/silver_coin.png,silver,,,,,training,,,silver,deval,,,,,0.0,0.0,0.0,0.0,2.0,1.0,5.0,1.0,,,,,,,,,0.0,training_resp,,357.0699440431199,27.562927293620305,5.0,,right,silver,0.0,141.0,1.0,right,2022_Aug_01_1040,habits_v_MRI,5.0,40.0,1.0,5.0,30.0,15.0,5.0,15.0,30.0,30.0,60.0,RR,59.96743238193445,
13.0,1.0,resp2,stim/right_resp_img.png,"[-0.5, 0]",right,stim/silver_coin.png,silver,,,,,training,,,silver,deval,,,,,0.0,0.0,0.0,0.0,2.0,1.0,5.0,1.0,,,,,,,,,0.0,training_resp,,358.98663128574844,29.47953799949028,5.0,,right,silver,0.0,141.0,1.0,right,2022_Aug_01_1040,habits_v_MRI,5.0,40.0,1.0,5.0,30.0,15.0,5.0,15.0,30.0,30.0,60.0,RR,59.96743238193445,
13.0,1.0,resp2,stim/right_resp_img.png,"[-0.5, 0]",right,stim/silver_coin.png,silver,,,,,training,,,silver,deval,,,,,0.0,0.0,0.0,0.0,2.0,1.0,5.0,1.0,,,,,,,,,0.0,training_resp,,364.50298434720025,34.99588226361084,5.0,,right,silver,0.0,141.0,1.0,right,2022_Aug_01_1040,habits_v_MRI,5.0,40.0,1.0,5.0,30.0,15.0,5.0,15.0,30.0,30.0,60.0,RR,59.96743238193445,
13.0,1.0,resp2,stim/right_resp_img.png,"[-0.5, 0]",right,stim/silver_coin.png,silver,,,,,training,,,silver,deval,,,,,0.0,0.0,0.0,0.0,2.0,1.0,5.0,1.0,,,,,,,,,0.0,training_resp,,367.1193533611368,37.61226887218072,5.0,,right,silver,0.0,141.0,1.0,right,2022_Aug_01_1040,habits_v_MRI,5.0,40.0,1.0,5.0,30.0,15.0,5.0,15.0,30.0,30.0,60.0,RR,59.96743238193445,
13.0,1.0,resp2,stim/right_resp_img.png,"[-0.5, 0]",right,stim/silver_coin.png,silver,,,,,training,,,silver,deval,,,,,0.0,0.0,0.0,0.0,2.0,1.0,5.0,1.0,,,,,,,,,0.0,training_resp,,368.9025672365096,39.3955126584915,5.0,,right,silver,0.0,141.0,1.0,right,2022_Aug_01_1040,habits_v_MRI,5.0,40.0,1.0,5.0,30.0,15.0,5.0,15.0,30.0,30.0,60.0,RR,59.96743238193445,
13.0,1.0,resp2,stim/right_resp_img.png,"[-0.5, 0]",right,stim/silver_coin.png,silver,,,,,training,,,silver,deval,,,,,0.0,0.0,0.0,0.0,2.0,1.0,5.0,1.0,,,,,,,,,0.0,ITI_start,28.333333333333336,374.1863860748708,44.67851451825118,,,,,,141.0,1.0,right,2022_Aug_01_1040,habits_v_MRI,5.0,40.0,1.0,5.0,30.0,15.0,5.0,15.0,30.0,30.0,60.0,RR,59.96743238193445,
13.0,0.0,resp1,stim/left_resp_img.png,"[0.5, 0]",left,stim/gold_coin.png,silver,,,,,training,,,gold,val,,,,,0.0,0.0,0.0,0.0,3.0,0.0,6.0,0.0,,,,,,,,,0.0,training_period_start,37.5,402.554741085798,0.0,6.0,19.0,,,,141.0,1.0,right,2022_Aug_01_1040,habits_v_MRI,5.0,40.0,1.0,5.0,30.0,15.0,5.0,15.0,30.0,30.0,60.0,RR,59.96743238193445,
13.0,0.0,resp1,stim/left_resp_img.png,"[0.5, 0]",left,stim/gold_coin.png,silver,,,,,training,,,gold,val,,,,,0.0,0.0,0.0,0.0,3.0,0.0,6.0,0.0,,,,,,,,,0.0,training_resp,,408.2832247254264,5.74785535785486,6.0,,left,gold,0.0,141.0,1.0,right,2022_Aug_01_1040,habits_v_MRI,5.0,40.0,1.0,5.0,30.0,15.0,5.0,15.0,30.0,30.0,60.0,RR,59.96743238193445,
13.0,0.0,resp1,stim/left_resp_img.png,"[0.5, 0]",left,stim/gold_coin.png,silver,,,,,training,,,gold,val,,,,,0.0,0.0,0.0,0.0,3.0,0.0,6.0,0.0,,,,,,,,,0.0,training_resp,,409.8498867783637,7.314483101217775,6.0,,left,gold,0.0,141.0,1.0,right,2022_Aug_01_1040,habits_v_MRI,5.0,40.0,1.0,5.0,30.0,15.0,5.0,15.0,30.0,30.0,60.0,RR,59.96743238193445,
13.0,0.0,resp1,stim/left_resp_img.png,"[0.5, 0]",left,stim/gold_coin.png,silver,,,,,training,,,gold,val,,,,,0.0,0.0,0.0,0.0,3.0,0.0,6.0,0.0,,,,,,,,,0.0,training_resp,,429.4984850999608,26.96307291873381,6.0,,left,gold,0.0,141.0,1.0,right,2022_Aug_01_1040,habits_v_MRI,5.0,40.0,1.0,5.0,30.0,15.0,5.0,15.0,30.0,30.0,60.0,RR,59.96743238193445,
13.0,0.0,resp1,stim/left_resp_img.png,"[0.5, 0]",left,stim/gold_coin.png,silver,,,,,training,,,gold,val,,,,,0.0,0.0,0.0,0.0,3.0,0.0,6.0,0.0,,,,,,,,,0.0,ITI_start,16.666666666666668,439.7151961540221,37.17904910258949,,,,,,141.0,1.0,right,2022_Aug_01_1040,habits_v_MRI,5.0,40.0,1.0,5.0,30.0,15.0,5.0,15.0,30.0,30.0,60.0,RR,59.96743238193445,
13.0,1.0,resp2,stim/right_resp_img.png,"[-0.5, 0]",right,stim/silver_coin.png,silver,,,,,training,,,silver,deval,,,,,0.0,0.0,0.0,0.0,3.0,1.0,7.0,1.0,,,,,,,,,0.0,training_period_start,60.0,456.4173813518719,0.0,7.0,20.0,,,,141.0,1.0,right,2022_Aug_01_1040,habits_v_MRI,5.0,40.0,1.0,5.0,30.0,15.0,5.0,15.0,30.0,30.0,60.0,RR,59.96743238193445,
13.0,1.0,resp2,stim/right_resp_img.png,"[-0.5, 0]",right,stim/silver_coin.png,silver,,,,,training,,,silver,deval,,,,,0.0,0.0,0.0,0.0,3.0,1.0,7.0,1.0,,,,,,,,,0.0,training_resp,,457.7627844249655,1.364599431224633,7.0,,right,silver,0.0,141.0,1.0,right,2022_Aug_01_1040,habits_v_MRI,5.0,40.0,1.0,5.0,30.0,15.0,5.0,15.0,30.0,30.0,60.0,RR,59.96743238193445,
13.0,1.0,resp2,stim/right_resp_img.png,"[-0.5, 0]",right,stim/silver_coin.png,silver,,,,,training,,,silver,deval,,,,,0.0,0.0,0.0,0.0,3.0,1.0,7.0,1.0,,,,,,,,,0.0,training_resp,,459.0794451583352,2.681287729559699,7.0,,right,silver,0.0,141.0,1.0,right,2022_Aug_01_1040,habits_v_MRI,5.0,40.0,1.0,5.0,30.0,15.0,5.0,15.0,30.0,30.0,60.0,RR,59.96743238193445,
13.0,1.0,resp2,stim/right_resp_img.png,"[-0.5, 0]",right,stim/silver_coin.png,silver,,,,,training,,,silver,deval,,,,,0.0,0.0,0.0,0.0,3.0,1.0,7.0,1.0,,,,,,,,,0.0,training_resp,,475.3787197305937,18.980307765770704,7.0,,right,silver,0.0,141.0,1.0,right,2022_Aug_01_1040,habits_v_MRI,5.0,40.0,1.0,5.0,30.0,15.0,5.0,15.0,30.0,30.0,60.0,RR,59.96743238193445,
13.0,1.0,resp2,stim/right_resp_img.png,"[-0.5, 0]",right,stim/silver_coin.png,silver,,,,,training,,,silver,deval,,,,,0.0,0.0,0.0,0.0,3.0,1.0,7.0,1.0,,,,,,,,,0.0,training_resp,,489.9611392658262,33.562690645456314,7.0,,right,silver,0.0,141.0,1.0,right,2022_Aug_01_1040,habits_v_MRI,5.0,40.0,1.0,5.0,30.0,15.0,5.0,15.0,30.0,30.0,60.0,RR,59.96743238193445,
13.0,1.0,resp2,stim/right_resp_img.png,"[-0.5, 0]",right,stim/silver_coin.png,silver,,,,,training,,,silver,deval,,,,,0.0,0.0,0.0,0.0,3.0,1.0,7.0,1.0,,,,,,,,,0.0,training_resp,,497.8939748853736,41.49544650258031,7.0,,right,silver,0.0,141.0,1.0,right,2022_Aug_01_1040,habits_v_MRI,5.0,40.0,1.0,5.0,30.0,15.0,5.0,15.0,30.0,30.0,60.0,RR,59.96743238193445,
13.0,1.0,resp2,stim/right_resp_img.png,"[-0.5, 0]",right,stim/silver_coin.png,silver,,,,,training,,,silver,deval,,,,,0.0,0.0,0.0,0.0,3.0,1.0,7.0,1.0,,,,,,,,,0.0,training_resp,,511.2596695840475,54.86123064075946,7.0,,right,silver,0.0,141.0,1.0,right,2022_Aug_01_1040,habits_v_MRI,5.0,40.0,1.0,5.0,30.0,15.0,5.0,15.0,30.0,30.0,60.0,RR,59.96743238193445,
13.0,1.0,resp2,stim/right_resp_img.png,"[-0.5, 0]",right,stim/silver_coin.png,silver,,,,,training,,,silver,deval,,,,,0.0,0.0,0.0,0.0,3.0,1.0,7.0,1.0,,,,,,,,,0.0,ITI_start,26.666666666666668,516.0768376300402,59.6776034081995,,,,,,141.0,1.0,right,2022_Aug_01_1040,habits_v_MRI,5.0,40.0,1.0,5.0,30.0,15.0,5.0,15.0,30.0,30.0,60.0,RR,59.96743238193445,
13.0,0.0,resp1,stim/left_resp_img.png,"[0.5, 0]",left,stim/gold_coin.png,silver,,,,,training,,,gold,val,,,,,0.0,0.0,0.0,0.0,4.0,0.0,8.0,0.0,,,,,,,,,0.0,training_period_start,45.0,542.7783853147994,0.0,8.0,20.0,,,,141.0,1.0,right,2022_Aug_01_1040,habits_v_MRI,5.0,40.0,1.0,5.0,30.0,15.0,5.0,15.0,30.0,30.0,60.0,RR,59.96743238193445,
13.0,0.0,resp1,stim/left_resp_img.png,"[0.5, 0]",left,stim/gold_coin.png,silver,,,,,training,,,gold,val,,,,,0.0,0.0,0.0,0.0,4.0,0.0,8.0,0.0,,,,,,,,,0.0,training_resp,,544.0575483134598,1.2981919143057894,8.0,,left,gold,0.0,141.0,1.0,right,2022_Aug_01_1040,habits_v_MRI,5.0,40.0,1.0,5.0,30.0,15.0,5.0,15.0,30.0,30.0,60.0,RR,59.96743238193445,
13.0,0.0,resp1,stim/left_resp_img.png,"[0.5, 0]",left,stim/gold_coin.png,silver,,,,,training,,,gold,val,,,,,0.0,0.0,0.0,0.0,4.0,0.0,8.0,0.0,,,,,,,,,0.0,training_resp,,545.6906369442004,2.931438017258188,8.0,,left,gold,0.0,141.0,1.0,right,2022_Aug_01_1040,habits_v_MRI,5.0,40.0,1.0,5.0,30.0,15.0,5.0,15.0,30.0,30.0,60.0,RR,59.96743238193445,
13.0,0.0,resp1,stim/left_resp_img.png,"[0.5, 0]",left,stim/gold_coin.png,silver,,,,,training,,,gold,val,,,,,0.0,0.0,0.0,0.0,4.0,0.0,8.0,0.0,,,,,,,,,0.0,training_resp,,556.689926120016,13.930729245766996,8.0,,left,gold,0.0,141.0,1.0,right,2022_Aug_01_1040,habits_v_MRI,5.0,40.0,1.0,5.0,30.0,15.0,5.0,15.0,30.0,30.0,60.0,RR,59.96743238193445,
13.0,0.0,resp1,stim/left_resp_img.png,"[0.5, 0]",left,stim/gold_coin.png,silver,,,,,training,,,gold,val,,,,,0.0,0.0,0.0,0.0,4.0,0.0,8.0,0.0,,,,,,,,,0.0,training_resp,,568.4224430416944,25.6632417687797,8.0,,left,gold,0.0,141.0,1.0,right,2022_Aug_01_1040,habits_v_MRI,5.0,40.0,1.0,5.0,30.0,15.0,5.0,15.0,30.0,30.0,60.0,RR,59.96743238193445,
13.0,0.0,resp1,stim/left_resp_img.png,"[0.5, 0]",left,stim/gold_coin.png,silver,,,,,training,,,gold,val,,,,,0.0,0.0,0.0,0.0,4.0,0.0,8.0,0.0,,,,,,,,,0.0,training_resp,,578.6217957928893,35.86256490228698,8.0,,left,gold,0.0,141.0,1.0,right,2022_Aug_01_1040,habits_v_MRI,5.0,40.0,1.0,5.0,30.0,15.0,5.0,15.0,30.0,30.0,60.0,RR,59.96743238193445,
13.0,0.0,resp1,stim/left_resp_img.png,"[0.5, 0]",left,stim/gold_coin.png,silver,,,,,training,,,gold,val,,,,,0.0,0.0,0.0,0.0,4.0,0.0,8.0,0.0,,,,,,,,,0.0,ITI_start,18.33333333333333,587.4386729405378,44.67860395772732,,,,,,141.0,1.0,right,2022_Aug_01_1040,habits_v_MRI,5.0,40.0,1.0,5.0,30.0,15.0,5.0,15.0,30.0,30.0,60.0,RR,59.96743238193445,
13.0,1.0,resp2,stim/right_resp_img.png,"[-0.5, 0]",right,stim/silver_coin.png,silver,,,,,training,,,silver,deval,,,,,0.0,0.0,0.0,0.0,4.0,1.0,9.0,1.0,,,,,,,,,0.0,training_period_start,52.5,605.8071945142001,0.0,9.0,11.0,,,,141.0,1.0,right,2022_Aug_01_1040,habits_v_MRI,5.0,40.0,1.0,5.0,30.0,15.0,5.0,15.0,30.0,30.0,60.0,RR,59.96743238193445,
13.0,1.0,resp2,stim/right_resp_img.png,"[-0.5, 0]",right,stim/silver_coin.png,silver,,,,,training,,,silver,deval,,,,,0.0,0.0,0.0,0.0,4.0,1.0,9.0,1.0,,,,,,,,,0.0,training_resp,,608.8365708480997,3.0482527625281364,9.0,,right,silver,0.0,141.0,1.0,right,2022_Aug_01_1040,habits_v_MRI,5.0,40.0,1.0,5.0,30.0,15.0,5.0,15.0,30.0,30.0,60.0,RR,59.96743238193445,
13.0,1.0,resp2,stim/right_resp_img.png,"[-0.5, 0]",right,stim/silver_coin.png,silver,,,,,training,,,silver,deval,,,,,0.0,0.0,0.0,0.0,4.0,1.0,9.0,1.0,,,,,,,,,0.0,training_resp,,612.6365424620744,6.847869550867472,9.0,,right,silver,0.0,141.0,1.0,right,2022_Aug_01_1040,habits_v_MRI,5.0,40.0,1.0,5.0,30.0,15.0,5.0,15.0,30.0,30.0,60.0,RR,59.96743238193445,
13.0,1.0,resp2,stim/right_resp_img.png,"[-0.5, 0]",right,stim/silver_coin.png,silver,,,,,training,,,silver,deval,,,,,0.0,0.0,0.0,0.0,4.0,1.0,9.0,1.0,,,,,,,,,0.0,training_resp,,631.001662401919,25.21331997704692,9.0,,right,silver,0.0,141.0,1.0,right,2022_Aug_01_1040,habits_v_MRI,5.0,40.0,1.0,5.0,30.0,15.0,5.0,15.0,30.0,30.0,60.0,RR,59.96743238193445,
13.0,1.0,resp2,stim/right_resp_img.png,"[-0.5, 0]",right,stim/silver_coin.png,silver,,,,,training,,,silver,deval,,,,,0.0,0.0,0.0,0.0,4.0,1.0,9.0,1.0,,,,,,,,,0.0,training_resp,,643.2675426069181,37.47914974403102,9.0,,right,silver,0.0,141.0,1.0,right,2022_Aug_01_1040,habits_v_MRI,5.0,40.0,1.0,5.0,30.0,15.0,5.0,15.0,30.0,30.0,60.0,RR,59.96743238193445,
13.0,1.0,resp2,stim/right_resp_img.png,"[-0.5, 0]",right,stim/silver_coin.png,silver,,,,,training,,,silver,deval,,,,,0.0,0.0,0.0,0.0,4.0,1.0,9.0,1.0,,,,,,,,,0.0,ITI_start,20.0,657.9672707108257,52.17813388715149,,,,,,141.0,1.0,right,2022_Aug_01_1040,habits_v_MRI,5.0,40.0,1.0,5.0,30.0,15.0,5.0,15.0,30.0,30.0,60.0,RR,59.96743238193445,
13.0,2.0,resp1_vs_resp2,,,,,silver,,,,,consumption,right,left,,,silver,gold,val,val,0.0,0.0,0.0,0.0,,,,,,,,,,,,,0.0,piggy_getting_full_msg,7.0,677.9804203715466,,,,,,,141.0,1.0,right,2022_Aug_01_1040,habits_v_MRI,5.0,40.0,1.0,5.0,30.0,15.0,5.0,15.0,30.0,30.0,60.0,RR,59.96743238193445,
13.0,2.0,resp1_vs_resp2,,,,,silver,,,,,consumption,right,left,,,silver,gold,val,val,0.0,0.0,0.0,0.0,,,,,,,,,,,,,0.0,instr_before_consumption,7.0,684.9965520335536,,,,,,,141.0,1.0,right,2022_Aug_01_1040,habits_v_MRI,5.0,40.0,1.0,5.0,30.0,15.0,5.0,15.0,30.0,30.0,60.0,RR,59.96743238193445,
13.0,2.0,resp1_vs_resp2,,,,,silver,,,,,consumption,right,left,,,silver,gold,val,val,0.0,0.0,0.0,0.0,,,,,,,,,,,,,0.0,consumption_start,15.0,692.0137725116219,0.0,,,,,,141.0,1.0,right,2022_Aug_01_1040,habits_v_MRI,5.0,40.0,1.0,5.0,30.0,15.0,5.0,15.0,30.0,30.0,60.0,RR,59.96743238193445,
13.0,2.0,resp1_vs_resp2,,,,,silver,,,,,consumption,right,left,,,silver,gold,val,val,0.0,0.0,0.0,0.0,,,,,,,,,,,,,0.0,consumption_resp,,694.5293288282992,2.515149000362726,,,right,silver,,141.0,1.0,right,2022_Aug_01_1040,habits_v_MRI,5.0,40.0,1.0,5.0,30.0,15.0,5.0,15.0,30.0,30.0,60.0,RR,59.96743238193445,
13.0,2.0,resp1_vs_resp2,,,,,silver,,,,,consumption,right,left,,,silver,gold,val,val,0.0,0.0,0.0,0.0,,,,,,,,,,,,,0.0,consumption_resp,,695.2122622448369,3.198452197975712,,,right,silver,,141.0,1.0,right,2022_Aug_01_1040,habits_v_MRI,5.0,40.0,1.0,5.0,30.0,15.0,5.0,15.0,30.0,30.0,60.0,RR,59.96743238193445,
13.0,2.0,resp1_vs_resp2,,,,,silver,,,,,consumption,right,left,,,silver,gold,val,val,0.0,0.0,0.0,0.0,,,,,,,,,,,,,0.0,consumption_resp,,695.8788370283146,3.865030500339344,,,right,silver,,141.0,1.0,right,2022_Aug_01_1040,habits_v_MRI,5.0,40.0,1.0,5.0,30.0,15.0,5.0,15.0,30.0,30.0,60.0,RR,59.96743238193445,
13.0,2.0,resp1_vs_resp2,,,,,silver,,,,,consumption,right,left,,,silver,gold,val,val,0.0,0.0,0.0,0.0,,,,,,,,,,,,,0.0,consumption_resp,,696.2285607628583,4.214999387128046,,,right,silver,,141.0,1.0,right,2022_Aug_01_1040,habits_v_MRI,5.0,40.0,1.0,5.0,30.0,15.0,5.0,15.0,30.0,30.0,60.0,RR,59.96743238193445,
13.0,2.0,resp1_vs_resp2,,,,,silver,,,,,consumption,right,left,,,silver,gold,val,val,0.0,0.0,0.0,0.0,,,,,,,,,,,,,0.0,consumption_resp,,696.6122061178903,4.598385807446903,,,right,silver,,141.0,1.0,right,2022_Aug_01_1040,habits_v_MRI,5.0,40.0,1.0,5.0,30.0,15.0,5.0,15.0,30.0,30.0,60.0,RR,59.96743238193445,
13.0,2.0,resp1_vs_resp2,,,,,silver,,,,,consumption,right,left,,,silver,gold,val,val,0.0,0.0,0.0,0.0,,,,,,,,,,,,,0.0,consumption_resp,,696.9451712341397,4.931632438238012,,,right,silver,,141.0,1.0,right,2022_Aug_01_1040,habits_v_MRI,5.0,40.0,1.0,5.0,30.0,15.0,5.0,15.0,30.0,30.0,60.0,RR,59.96743238193445,
13.0,2.0,resp1_vs_resp2,,,,,silver,,,,,consumption,right,left,,,silver,gold,val,val,0.0,0.0,0.0,0.0,,,,,,,,,,,,,0.0,consumption_resp,,697.2785161017382,5.264963523339247,,,right,silver,,141.0,1.0,right,2022_Aug_01_1040,habits_v_MRI,5.0,40.0,1.0,5.0,30.0,15.0,5.0,15.0,30.0,30.0,60.0,RR,59.96743238193445,
13.0,2.0,resp1_vs_resp2,,,,,silver,,,,,consumption,right,left,,,silver,gold,val,val,0.0,0.0,0.0,0.0,,,,,,,,,,,,,0.0,consumption_resp,,697.6287621043739,5.614948538568569,,,right,silver,,141.0,1.0,right,2022_Aug_01_1040,habits_v_MRI,5.0,40.0,1.0,5.0,30.0,15.0,5.0,15.0,30.0,30.0,60.0,RR,59.96743238193445,
13.0,2.0,resp1_vs_resp2,,,,,silver,,,,,consumption,right,left,,,silver,gold,val,val,0.0,0.0,0.0,0.0,,,,,,,,,,,,,0.0,consumption_resp,,697.9287260939891,5.914921911986312,,,right,silver,,141.0,1.0,right,2022_Aug_01_1040,habits_v_MRI,5.0,40.0,1.0,5.0,30.0,15.0,5.0,15.0,30.0,30.0,60.0,RR,59.96743238193445,
13.0,2.0,resp1_vs_resp2,,,,,silver,,,,,consumption,right,left,,,silver,gold,val,val,0.0,0.0,0.0,0.0,,,,,,,,,,,,,0.0,consumption_resp,,698.2786835442239,6.264882881165249,,,right,silver,,141.0,1.0,right,2022_Aug_01_1040,habits_v_MRI,5.0,40.0,1.0,5.0,30.0,15.0,5.0,15.0,30.0,30.0,60.0,RR,59.96743238193445,
13.0,2.0,resp1_vs_resp2,,,,,silver,,,,,consumption,right,left,,,silver,gold,val,val,0.0,0.0,0.0,0.0,,,,,,,,,,,,,0.0,instr_after_consumption,3.0,707.010682889726,14.997637037478851,,,,,,141.0,1.0,right,2022_Aug_01_1040,habits_v_MRI,5.0,40.0,1.0,5.0,30.0,15.0,5.0,15.0,30.0,30.0,60.0,RR,59.96743238193445,
13.0,2.0,resp1_vs_resp2,,,,,silver,,,,,consumption,right,left,,,silver,gold,val,val,0.0,0.0,0.0,0.0,,,,,,,,,,,,,0.0,rest_after_block,3.0,710.0281171428796,,,,,,,141.0,1.0,right,2022_Aug_01_1040,habits_v_MRI,5.0,40.0,1.0,5.0,30.0,15.0,5.0,15.0,30.0,30.0,60.0,RR,59.96743238193445,
13.0,0.0,resp1,stim/left_resp_img.png,"[0.5, 0]",left,stim/gold_coin.png,silver,,,,,training,,,gold,val,,,,,0.0,1.0,1.0,1.0,0.0,0.0,0.0,0.0,,,,,,,,,1.0,instr_before_block,6.0,0.002566474082414,,,,,,,141.0,1.0,right,2022_Aug_01_1040,habits_v_MRI,5.0,40.0,1.0,5.0,30.0,15.0,5.0,15.0,30.0,30.0,60.0,RR,59.96743238193445,
13.0,0.0,resp1,stim/left_resp_img.png,"[0.5, 0]",left,stim/gold_coin.png,silver,,,,,training,,,gold,val,,,,,0.0,1.0,1.0,1.0,0.0,0.0,0.0,0.0,,,,,,,,,1.0,training_period_start,60.0,6.036079605284613,0.0,10.0,16.0,,,,141.0,1.0,right,2022_Aug_01_1040,habits_v_MRI,5.0,40.0,1.0,5.0,30.0,15.0,5.0,15.0,30.0,30.0,60.0,RR,59.96743238193445,
13.0,0.0,resp1,stim/left_resp_img.png,"[0.5, 0]",left,stim/gold_coin.png,silver,,,,,training,,,gold,val,,,,,0.0,1.0,1.0,1.0,0.0,0.0,0.0,0.0,,,,,,,,,1.0,training_resp,,7.248979069991037,1.2320647389569783,10.0,,left,gold,0.0,141.0,1.0,right,2022_Aug_01_1040,habits_v_MRI,5.0,40.0,1.0,5.0,30.0,15.0,5.0,15.0,30.0,30.0,60.0,RR,59.96743238193445,
13.0,0.0,resp1,stim/left_resp_img.png,"[0.5, 0]",left,stim/gold_coin.png,silver,,,,,training,,,gold,val,,,,,0.0,1.0,1.0,1.0,0.0,0.0,0.0,0.0,,,,,,,,,1.0,training_resp,,8.74877115979325,2.731976179173216,10.0,,left,gold,0.0,141.0,1.0,right,2022_Aug_01_1040,habits_v_MRI,5.0,40.0,1.0,5.0,30.0,15.0,5.0,15.0,30.0,30.0,60.0,RR,59.96743238193445,
13.0,0.0,resp1,stim/left_resp_img.png,"[0.5, 0]",left,stim/gold_coin.png,silver,,,,,training,,,gold,val,,,,,0.0,1.0,1.0,1.0,0.0,0.0,0.0,0.0,,,,,,,,,1.0,training_resp,,18.4646279932349,12.447908083180664,10.0,,left,gold,0.0,141.0,1.0,right,2022_Aug_01_1040,habits_v_MRI,5.0,40.0,1.0,5.0,30.0,15.0,5.0,15.0,30.0,30.0,60.0,RR,59.96743238193445,
13.0,0.0,resp1,stim/left_resp_img.png,"[0.5, 0]",left,stim/gold_coin.png,silver,,,,,training,,,gold,val,,,,,0.0,1.0,1.0,1.0,0.0,0.0,0.0,0.0,,,,,,,,,1.0,training_resp,,20.064577965735225,14.0478518975724,10.0,,left,gold,0.0,141.0,1.0,right,2022_Aug_01_1040,habits_v_MRI,5.0,40.0,1.0,5.0,30.0,15.0,5.0,15.0,30.0,30.0,60.0,RR,59.96743238193445,
13.0,0.0,resp1,stim/left_resp_img.png,"[0.5, 0]",left,stim/gold_coin.png,silver,,,,,training,,,gold,val,,,,,0.0,1.0,1.0,1.0,0.0,0.0,0.0,0.0,,,,,,,,,1.0,training_resp,,51.529426771914586,45.51226582244272,10.0,,left,gold,0.0,141.0,1.0,right,2022_Aug_01_1040,habits_v_MRI,5.0,40.0,1.0,5.0,30.0,15.0,5.0,15.0,30.0,30.0,60.0,RR,59.96743238193445,
13.0,0.0,resp1,stim/left_resp_img.png,"[0.5, 0]",left,stim/gold_coin.png,silver,,,,,training,,,gold,val,,,,,0.0,1.0,1.0,1.0,0.0,0.0,0.0,0.0,,,,,,,,,1.0,training_resp,,54.02882679409231,48.01207873257226,10.0,,left,gold,0.0,141.0,1.0,right,2022_Aug_01_1040,habits_v_MRI,5.0,40.0,1.0,5.0,30.0,15.0,5.0,15.0,30.0,30.0,60.0,RR,59.96743238193445,
13.0,0.0,resp1,stim/left_resp_img.png,"[0.5, 0]",left,stim/gold_coin.png,silver,,,,,training,,,gold,val,,,,,0.0,1.0,1.0,1.0,0.0,0.0,0.0,0.0,,,,,,,,,1.0,training_resp,,56.27867474692175,50.26192756515229,10.0,,left,gold,0.0,141.0,1.0,right,2022_Aug_01_1040,habits_v_MRI,5.0,40.0,1.0,5.0,30.0,15.0,5.0,15.0,30.0,30.0,60.0,RR,59.96743238193445,
13.0,0.0,resp1,stim/left_resp_img.png,"[0.5, 0]",left,stim/gold_coin.png,silver,,,,,training,,,gold,val,,,,,0.0,1.0,1.0,1.0,0.0,0.0,0.0,0.0,,,,,,,,,1.0,training_resp,,60.97839434671914,54.96167385019362,10.0,,left,gold,0.0,141.0,1.0,right,2022_Aug_01_1040,habits_v_MRI,5.0,40.0,1.0,5.0,30.0,15.0,5.0,15.0,30.0,30.0,60.0,RR,59.96743238193445,
13.0,0.0,resp1,stim/left_resp_img.png,"[0.5, 0]",left,stim/gold_coin.png,silver,,,,,training,,,gold,val,,,,,0.0,1.0,1.0,1.0,0.0,0.0,0.0,0.0,,,,,,,,,1.0,ITI_start,23.333333333333336,65.69550098734908,59.67793125534081,,,,,,141.0,1.0,right,2022_Aug_01_1040,habits_v_MRI,5.0,40.0,1.0,5.0,30.0,15.0,5.0,15.0,30.0,30.0,60.0,RR,59.96743238193445,
13.0,1.0,resp2,stim/right_resp_img.png,"[-0.5, 0]",right,stim/silver_coin.png,silver,,,,,training,,,silver,deval,,,,,0.0,1.0,1.0,1.0,0.0,1.0,1.0,1.0,,,,,,,,,1.0,training_period_start,30.0,89.0640844356094,0.0,11.0,29.0,,,,141.0,1.0,right,2022_Aug_01_1040,habits_v_MRI,5.0,40.0,1.0,5.0,30.0,15.0,5.0,15.0,30.0,30.0,60.0,RR,59.96743238193445,
13.0,1.0,resp2,stim/right_resp_img.png,"[-0.5, 0]",right,stim/silver_coin.png,silver,,,,,training,,,silver,deval,,,,,0.0,1.0,1.0,1.0,0.0,1.0,1.0,1.0,,,,,,,,,1.0,training_resp,,91.40950275739306,2.364661305764457,11.0,,right,silver,0.0,141.0,1.0,right,2022_Aug_01_1040,habits_v_MRI,5.0,40.0,1.0,5.0,30.0,15.0,5.0,15.0,30.0,30.0,60.0,RR,59.96743238193445,
13.0,1.0,resp2,stim/right_resp_img.png,"[-0.5, 0]",right,stim/silver_coin.png,silver,,,,,training,,,silver,deval,,,,,0.0,1.0,1.0,1.0,0.0,1.0,1.0,1.0,,,,,,,,,1.0,training_resp,,92.15951375404256,3.1146371131180786,11.0,,right,silver,0.0,141.0,1.0,right,2022_Aug_01_1040,habits_v_MRI,5.0,40.0,1.0,5.0,30.0,15.0,5.0,15.0,30.0,30.0,60.0,RR,59.96743238193445,
13.0,1.0,resp2,stim/right_resp_img.png,"[-0.5, 0]",right,stim/silver_coin.png,silver,,,,,training,,,silver,deval,,,,,0.0,1.0,1.0,1.0,0.0,1.0,1.0,1.0,,,,,,,,,1.0,training_resp,,93.52605563547696,4.481205679767299,11.0,,right,silver,0.0,141.0,1.0,right,2022_Aug_01_1040,habits_v_MRI,5.0,40.0,1.0,5.0,30.0,15.0,5.0,15.0,30.0,30.0,60.0,RR,59.96743238193445,
13.0,1.0,resp2,stim/right_resp_img.png,"[-0.5, 0]",right,stim/silver_coin.png,silver,,,,,training,,,silver,deval,,,,,0.0,1.0,1.0,1.0,0.0,1.0,1.0,1.0,,,,,,,,,1.0,training_resp,,94.3928936936718,5.347909432079177,11.0,,right,silver,0.0,141.0,1.0,right,2022_Aug_01_1040,habits_v_MRI,5.0,40.0,1.0,5.0,30.0,15.0,5.0,15.0,30.0,30.0,60.0,RR,59.96743238193445,
13.0,1.0,resp2,stim/right_resp_img.png,"[-0.5, 0]",right,stim/silver_coin.png,silver,,,,,training,,,silver,deval,,,,,0.0,1.0,1.0,1.0,0.0,1.0,1.0,1.0,,,,,,,,,1.0,ITI_start,15.0,118.72548550993088,29.67952533130301,,,,,,141.0,1.0,right,2022_Aug_01_1040,habits_v_MRI,5.0,40.0,1.0,5.0,30.0,15.0,5.0,15.0,30.0,30.0,60.0,RR,59.96743238193445,
13.0,0.0,resp1,stim/left_resp_img.png,"[0.5, 0]",left,stim/gold_coin.png,silver,,,,,training,,,gold,val,,,,,0.0,1.0,1.0,1.0,1.0,0.0,2.0,0.0,,,,,,,,,1.0,training_period_start,52.5,133.76059916848317,0.0,12.0,21.0,,,,141.0,1.0,right,2022_Aug_01_1040,habits_v_MRI,5.0,40.0,1.0,5.0,30.0,15.0,5.0,15.0,30.0,30.0,60.0,RR,59.96743238193445,
13.0,0.0,resp1,stim/left_resp_img.png,"[0.5, 0]",left,stim/gold_coin.png,silver,,,,,training,,,gold,val,,,,,0.0,1.0,1.0,1.0,1.0,0.0,2.0,0.0,,,,,,,,,1.0,training_resp,,135.47337840302498,1.731470626022201,12.0,,left,gold,0.0,141.0,1.0,right,2022_Aug_01_1040,habits_v_MRI,5.0,40.0,1.0,5.0,30.0,15.0,5.0,15.0,30.0,30.0,60.0,RR,59.96743238193445,
13.0,0.0,resp1,stim/left_resp_img.png,"[0.5, 0]",left,stim/gold_coin.png,silver,,,,,training,,,gold,val,,,,,0.0,1.0,1.0,1.0,1.0,0.0,2.0,0.0,,,,,,,,,1.0,ITI_start,26.666666666666668,185.920885914471,52.17795588786248,,,,,,141.0,1.0,right,2022_Aug_01_1040,habits_v_MRI,5.0,40.0,1.0,5.0,30.0,15.0,5.0,15.0,30.0,30.0,60.0,RR,59.96743238193445,
13.0,1.0,resp2,stim/right_resp_img.png,"[-0.5, 0]",right,stim/silver_coin.png,silver,,,,,training,,,silver,deval,,,,,0.0,1.0,1.0,1.0,1.0,1.0,3.0,1.0,,,,,,,,,1.0,training_period_start,37.5,212.6222858041001,0.0,13.0,16.0,,,,141.0,1.0,right,2022_Aug_01_1040,habits_v_MRI,5.0,40.0,1.0,5.0,30.0,15.0,5.0,15.0,30.0,30.0,60.0,RR,59.96743238193445,
13.0,1.0,resp2,stim/right_resp_img.png,"[-0.5, 0]",right,stim/silver_coin.png,silver,,,,,training,,,silver,deval,,,,,0.0,1.0,1.0,1.0,1.0,1.0,3.0,1.0,,,,,,,,,1.0,training_resp,,214.4511545907881,1.8479959391697776,13.0,,right,silver,0.0,141.0,1.0,right,2022_Aug_01_1040,habits_v_MRI,5.0,40.0,1.0,5.0,30.0,15.0,5.0,15.0,30.0,30.0,60.0,RR,59.96743238193445,
13.0,1.0,resp2,stim/right_resp_img.png,"[-0.5, 0]",right,stim/silver_coin.png,silver,,,,,training,,,silver,deval,,,,,0.0,1.0,1.0,1.0,1.0,1.0,3.0,1.0,,,,,,,,,1.0,ITI_start,16.666666666666668,249.78305493696823,37.17895673064049,,,,,,141.0,1.0,right,2022_Aug_01_1040,habits_v_MRI,5.0,40.0,1.0,5.0,30.0,15.0,5.0,15.0,30.0,30.0,60.0,RR,59.96743238193445,
13.0,0.0,resp1,stim/left_resp_img.png,"[0.5, 0]",left,stim/gold_coin.png,silver,,,,,training,,,gold,val,,,,,0.0,1.0,1.0,1.0,2.0,0.0,4.0,0.0,,,,,,,,,1.0,training_period_start,30.0,266.48485862399684,0.0,14.0,15.0,,,,141.0,1.0,right,2022_Aug_01_1040,habits_v_MRI,5.0,40.0,1.0,5.0,30.0,15.0,5.0,15.0,30.0,30.0,60.0,RR,59.96743238193445,
13.0,0.0,resp1,stim/left_resp_img.png,"[0.5, 0]",left,stim/gold_coin.png,silver,,,,,training,,,gold,val,,,,,0.0,1.0,1.0,1.0,2.0,0.0,4.0,0.0,,,,,,,,,1.0,training_resp,,268.5138945012586,2.04806713887956,14.0,,left,gold,0.0,141.0,1.0,right,2022_Aug_01_1040,habits_v_MRI,5.0,40.0,1.0,5.0,30.0,15.0,5.0,15.0,30.0,30.0,60.0,RR,59.96743238193445,
13.0,0.0,resp1,stim/left_resp_img.png,"[0.5, 0]",left,stim/gold_coin.png,silver,,,,,training,,,gold,val,,,,,0.0,1.0,1.0,1.0,2.0,0.0,4.0,0.0,,,,,,,,,1.0,ITI_start,28.333333333333336,296.1463180539431,29.679538527299883,,,,,,141.0,1.0,right,2022_Aug_01_1040,habits_v_MRI,5.0,40.0,1.0,5.0,30.0,15.0,5.0,15.0,30.0,30.0,60.0,RR,59.96743238193445,
13.0,1.0,resp2,stim/right_resp_img.png,"[-0.5, 0]",right,stim/silver_coin.png,silver,,,,,training,,,silver,deval,,,,,0.0,1.0,1.0,1.0,2.0,1.0,5.0,1.0,,,,,,,,,1.0,training_period_start,45.0,324.5144375897071,0.0,15.0,27.0,,,,141.0,1.0,right,2022_Aug_01_1040,habits_v_MRI,5.0,40.0,1.0,5.0,30.0,15.0,5.0,15.0,30.0,30.0,60.0,RR,59.96743238193445,
13.0,1.0,resp2,stim/right_resp_img.png,"[-0.5, 0]",right,stim/silver_coin.png,silver,,,,,training,,,silver,deval,,,,,0.0,1.0,1.0,1.0,2.0,1.0,5.0,1.0,,,,,,,,,1.0,training_resp,,326.39352446215344,1.8980647636053616,15.0,,right,silver,0.0,141.0,1.0,right,2022_Aug_01_1040,habits_v_MRI,5.0,40.0,1.0,5.0,30.0,15.0,5.0,15.0,30.0,30.0,60.0,RR,59.96743238193445,
13.0,1.0,resp2,stim/right_resp_img.png,"[-0.5, 0]",right,stim/silver_coin.png,silver,,,,,training,,,silver,deval,,,,,0.0,1.0,1.0,1.0,2.0,1.0,5.0,1.0,,,,,,,,,1.0,ITI_start,25.0,369.174826971197,44.67849985603243,,,,,,141.0,1.0,right,2022_Aug_01_1040,habits_v_MRI,5.0,40.0,1.0,5.0,30.0,15.0,5.0,15.0,30.0,30.0,60.0,RR,59.96743238193445,
13.0,0.0,resp1,stim/left_resp_img.png,"[0.5, 0]",left,stim/gold_coin.png,silver,,,,,training,,,gold,val,,,,,0.0,1.0,1.0,1.0,3.0,0.0,6.0,0.0,,,,,,,,,1.0,training_period_start,37.5,394.2096151286096,0.0,16.0,10.0,,,,141.0,1.0,right,2022_Aug_01_1040,habits_v_MRI,5.0,40.0,1.0,5.0,30.0,15.0,5.0,15.0,30.0,30.0,60.0,RR,59.96743238193445,
13.0,0.0,resp1,stim/left_resp_img.png,"[0.5, 0]",left,stim/gold_coin.png,silver,,,,,training,,,gold,val,,,,,0.0,1.0,1.0,1.0,3.0,0.0,6.0,0.0,,,,,,,,,1.0,training_resp,,396.0554583613703,1.864717315445887,16.0,,left,gold,0.0,141.0,1.0,right,2022_Aug_01_1040,habits_v_MRI,5.0,40.0,1.0,5.0,30.0,15.0,5.0,15.0,30.0,30.0,60.0,RR,59.96743238193445,
13.0,0.0,resp1,stim/left_resp_img.png,"[0.5, 0]",left,stim/gold_coin.png,silver,,,,,training,,,gold,val,,,,,0.0,1.0,1.0,1.0,3.0,0.0,6.0,0.0,,,,,,,,,1.0,ITI_start,30.0,431.3707472979149,37.17904617014574,,,,,,141.0,1.0,right,2022_Aug_01_1040,habits_v_MRI,5.0,40.0,1.0,5.0,30.0,15.0,5.0,15.0,30.0,30.0,60.0,RR,59.96743238193445,
13.0,1.0,resp2,stim/right_resp_img.png,"[-0.5, 0]",right,stim/silver_coin.png,silver,,,,,training,,,silver,deval,,,,,0.0,1.0,1.0,1.0,3.0,1.0,7.0,1.0,,,,,,,,,1.0,training_period_start,60.0,461.4042067653791,0.0,17.0,19.0,,,,141.0,1.0,right,2022_Aug_01_1040,habits_v_MRI,5.0,40.0,1.0,5.0,30.0,15.0,5.0,15.0,30.0,30.0,60.0,RR,59.96743238193445,
13.0,1.0,resp2,stim/right_resp_img.png,"[-0.5, 0]",right,stim/silver_coin.png,silver,,,,,training,,,silver,deval,,,,,0.0,1.0,1.0,1.0,3.0,1.0,7.0,1.0,,,,,,,,,1.0,training_resp,,463.6008886475174,2.214555415266659,17.0,,right,silver,0.0,141.0,1.0,right,2022_Aug_01_1040,habits_v_MRI,5.0,40.0,1.0,5.0,30.0,15.0,5.0,15.0,30.0,30.0,60.0,RR,59.96743238193445,
13.0,1.0,resp2,stim/right_resp_img.png,"[-0.5, 0]",right,stim/silver_coin.png,silver,,,,,training,,,silver,deval,,,,,0.0,1.0,1.0,1.0,3.0,1.0,7.0,1.0,,,,,,,,,1.0,ITI_start,20.0,521.0646720971563,59.677381129033165,,,,,,141.0,1.0,right,2022_Aug_01_1040,habits_v_MRI,5.0,40.0,1.0,5.0,30.0,15.0,5.0,15.0,30.0,30.0,60.0,RR,59.96743238193445,
13.0,0.0,resp1,stim/left_resp_img.png,"[0.5, 0]",left,stim/gold_coin.png,silver,,,,,training,,,gold,val,,,,,0.0,1.0,1.0,1.0,4.0,0.0,8.0,0.0,,,,,,,,,1.0,training_period_start,45.0,541.0996713904606,0.0,18.0,17.0,,,,141.0,1.0,right,2022_Aug_01_1040,habits_v_MRI,5.0,40.0,1.0,5.0,30.0,15.0,5.0,15.0,30.0,30.0,60.0,RR,59.96743238193445,
13.0,0.0,resp1,stim/left_resp_img.png,"[0.5, 0]",left,stim/gold_coin.png,silver,,,,,training,,,gold,val,,,,,0.0,1.0,1.0,1.0,4.0,0.0,8.0,0.0,,,,,,,,,1.0,training_resp,,542.2618519081152,1.1811381749575958,18.0,,left,gold,0.0,141.0,1.0,right,2022_Aug_01_1040,habits_v_MRI,5.0,40.0,1.0,5.0,30.0,15.0,5.0,15.0,30.0,30.0,60.0,RR,59.96743238193445,
13.0,0.0,resp1,stim/left_resp_img.png,"[0.5, 0]",left,stim/gold_coin.png,silver,,,,,training,,,gold,val,,,,,0.0,1.0,1.0,1.0,4.0,0.0,8.0,0.0,,,,,,,,,1.0,ITI_start,21.666666666666668,585.7606062063423,44.678484020842006,,,,,,141.0,1.0,right,2022_Aug_01_1040,habits_v_MRI,5.0,40.0,1.0,5.0,30.0,15.0,5.0,15.0,30.0,30.0,60.0,RR,59.96743238193445,
13.0,1.0,resp2,stim/right_resp_img.png,"[-0.5, 0]",right,stim/silver_coin.png,silver,,,,,training,,,silver,deval,,,,,0.0,1.0,1.0,1.0,4.0,1.0,9.0,1.0,,,,,,,,,1.0,training_period_start,52.5,607.4620694367331,0.0,19.0,19.0,,,,141.0,1.0,right,2022_Aug_01_1040,habits_v_MRI,5.0,40.0,1.0,5.0,30.0,15.0,5.0,15.0,30.0,30.0,60.0,RR,59.96743238193445,
13.0,1.0,resp2,stim/right_resp_img.png,"[-0.5, 0]",right,stim/silver_coin.png,silver,,,,,training,,,silver,deval,,,,,0.0,1.0,1.0,1.0,4.0,1.0,9.0,1.0,,,,,,,,,1.0,training_resp,,609.0743729117385,1.631427695043385,19.0,,right,silver,0.0,141.0,1.0,right,2022_Aug_01_1040,habits_v_MRI,5.0,40.0,1.0,5.0,30.0,15.0,5.0,15.0,30.0,30.0,60.0,RR,59.96743238193445,
13.0,1.0,resp2,stim/right_resp_img.png,"[-0.5, 0]",right,stim/silver_coin.png,silver,,,,,training,,,silver,deval,,,,,0.0,1.0,1.0,1.0,4.0,1.0,9.0,1.0,,,,,,,,,1.0,ITI_start,18.33333333333333,659.6220025301154,52.17806790716713,,,,,,141.0,1.0,right,2022_Aug_01_1040,habits_v_MRI,5.0,40.0,1.0,5.0,30.0,15.0,5.0,15.0,30.0,30.0,60.0,RR,59.96743238193445,
13.0,3.0,resp1_vs_resp2,,,,,silver,,,,,consumption,right,left,,,gold,silver,val,deval,0.0,1.0,1.0,1.0,,,,,,,,,,,,,1.0,piggy_full_msg,7.0,678.0173832286673,,,,,,,141.0,1.0,right,2022_Aug_01_1040,habits_v_MRI,5.0,40.0,1.0,5.0,30.0,15.0,5.0,15.0,30.0,30.0,60.0,RR,59.96743238193445,
13.0,3.0,resp1_vs_resp2,,,,,silver,,,,,consumption,right,left,,,gold,silver,val,deval,0.0,1.0,1.0,1.0,,,,,,,,,,,,,1.0,instr_before_consumption,7.0,685.0346107445948,,,,,,,141.0,1.0,right,2022_Aug_01_1040,habits_v_MRI,5.0,40.0,1.0,5.0,30.0,15.0,5.0,15.0,30.0,30.0,60.0,RR,59.96743238193445,
13.0,3.0,resp1_vs_resp2,,,,,silver,,,,,consumption,right,left,,,gold,silver,val,deval,0.0,1.0,1.0,1.0,,,,,,,,,,,,,1.0,consumption_start,15.0,692.0515274215722,0.0,,,,,,141.0,1.0,right,2022_Aug_01_1040,habits_v_MRI,5.0,40.0,1.0,5.0,30.0,15.0,5.0,15.0,30.0,30.0,60.0,RR,59.96743238193445,
13.0,3.0,resp1_vs_resp2,,,,,silver,,,,,consumption,right,left,,,gold,silver,val,deval,0.0,1.0,1.0,1.0,,,,,,,,,,,,,1.0,consumption_resp,,693.433558466757,1.3819228380452842,,,right,gold,,141.0,1.0,right,2022_Aug_01_1040,habits_v_MRI,5.0,40.0,1.0,5.0,30.0,15.0,5.0,15.0,30.0,30.0,60.0,RR,59.96743238193445,
13.0,3.0,resp1_vs_resp2,,,,,silver,,,,,consumption,right,left,,,gold,silver,val,deval,0.0,1.0,1.0,1.0,,,,,,,,,,,,,1.0,consumption_resp,,693.9834985569469,1.931883455341449,,,right,gold,,141.0,1.0,right,2022_Aug_01_1040,habits_v_MRI,5.0,40.0,1.0,5.0,30.0,15.0,5.0,15.0,30.0,30.0,60.0,RR,59.96743238193445,
13.0,3.0,resp1_vs_resp2,,,,,silver,,,,,consumption,right,left,,,gold,silver,val,deval,0.0,1.0,1.0,1.0,,,,,,,,,,,,,1.0,consumption_resp,,694.3670764658018,2.315198324038647,,,right,gold,,141.0,1.0,right,2022_Aug_01_1040,habits_v_MRI,5.0,40.0,1.0,5.0,30.0,15.0,5.0,15.0,30.0,30.0,60.0,RR,59.96743238193445,
13.0,3.0,resp1_vs_resp2,,,,,silver,,,,,consumption,right,left,,,gold,silver,val,deval,0.0,1.0,1.0,1.0,,,,,,,,,,,,,1.0,consumption_resp,,694.7334456263634,2.681824659841368,,,right,gold,,141.0,1.0,right,2022_Aug_01_1040,habits_v_MRI,5.0,40.0,1.0,5.0,30.0,15.0,5.0,15.0,30.0,30.0,60.0,RR,59.96743238193445,
13.0,3.0,resp1_vs_resp2,,,,,silver,,,,,consumption,right,left,,,gold,silver,val,deval,0.0,1.0,1.0,1.0,,,,,,,,,,,,,1.0,consumption_resp,,695.1503138007247,3.0984497347089928,,,right,gold,,141.0,1.0,right,2022_Aug_01_1040,habits_v_MRI,5.0,40.0,1.0,5.0,30.0,15.0,5.0,15.0,30.0,30.0,60.0,RR,59.96743238193445,
13.0,3.0,resp1_vs_resp2,,,,,silver,,,,,consumption,right,left,,,gold,silver,val,deval,0.0,1.0,1.0,1.0,,,,,,,,,,,,,1.0,consumption_resp,,695.4667135466589,3.4151022572186776,,,right,gold,,141.0,1.0,right,2022_Aug_01_1040,habits_v_MRI,5.0,40.0,1.0,5.0,30.0,15.0,5.0,15.0,30.0,30.0,60.0,RR,59.96743238193445,
13.0,3.0,resp1_vs_resp2,,,,,silver,,,,,consumption,right,left,,,gold,silver,val,deval,0.0,1.0,1.0,1.0,,,,,,,,,,,,,1.0,consumption_resp,,695.7836575540132,3.731797300162725,,,right,gold,,141.0,1.0,right,2022_Aug_01_1040,habits_v_MRI,5.0,40.0,1.0,5.0,30.0,15.0,5.0,15.0,30.0,30.0,60.0,RR,59.96743238193445,
13.0,3.0,resp1_vs_resp2,,,,,silver,,,,,consumption,right,left,,,gold,silver,val,deval,0.0,1.0,1.0,1.0,,,,,,,,,,,,,1.0,consumption_resp,,696.100290135917,4.048424896900542,,,right,gold,,141.0,1.0,right,2022_Aug_01_1040,habits_v_MRI,5.0,40.0,1.0,5.0,30.0,15.0,5.0,15.0,30.0,30.0,60.0,RR,59.96743238193445,
13.0,3.0,resp1_vs_resp2,,,,,silver,,,,,consumption,right,left,,,gold,silver,val,deval,0.0,1.0,1.0,1.0,,,,,,,,,,,,,1.0,consumption_resp,,696.4168983785494,4.365037831448717,,,right,gold,,141.0,1.0,right,2022_Aug_01_1040,habits_v_MRI,5.0,40.0,1.0,5.0,30.0,15.0,5.0,15.0,30.0,30.0,60.0,RR,59.96743238193445,
13.0,3.0,resp1_vs_resp2,,,,,silver,,,,,consumption,right,left,,,gold,silver,val,deval,0.0,1.0,1.0,1.0,,,,,,,,,,,,,1.0,consumption_resp,,696.7668526031193,4.714994988462422,,,right,gold,,141.0,1.0,right,2022_Aug_01_1040,habits_v_MRI,5.0,40.0,1.0,5.0,30.0,15.0,5.0,15.0,30.0,30.0,60.0,RR,59.96743238193445,
13.0,3.0,resp1_vs_resp2,,,,,silver,,,,,consumption,right,left,,,gold,silver,val,deval,0.0,1.0,1.0,1.0,,,,,,,,,,,,,1.0,instr_after_consumption,3.0,707.0487542102637,14.997636744199554,,,,,,141.0,1.0,right,2022_Aug_01_1040,habits_v_MRI,5.0,40.0,1.0,5.0,30.0,15.0,5.0,15.0,30.0,30.0,60.0,RR,59.96743238193445,
13.0,3.0,resp1_vs_resp2,,,,,silver,,,,,consumption,right,left,,,gold,silver,val,deval,0.0,1.0,1.0,1.0,,,,,,,,,,,,,1.0,rest_after_block,3.0,710.0661963810271,,,,,,,141.0,1.0,right,2022_Aug_01_1040,habits_v_MRI,5.0,40.0,1.0,5.0,30.0,15.0,5.0,15.0,30.0,30.0,60.0,RR,59.96743238193445,
13.0,4.0,resp1_vs_resp2,,,,,silver,stim/right_resp_img.png,stim/left_resp_img.png,"[-0.5, 0]","[0.5, 0]",choice,right,left,,,silver,gold,deval,val,,,,,,,,,0.0,0.0,0.0,0.0,,,,,1.0,instr_before_choice_test,10.0,713.0845490753127,,,,,,,141.0,1.0,right,2022_Aug_01_1040,habits_v_MRI,5.0,40.0,1.0,5.0,30.0,15.0,5.0,15.0,30.0,30.0,60.0,RR,59.96743238193445,
13.0,4.0,resp1_vs_resp2,,,,,silver,stim/right_resp_img.png,stim/left_resp_img.png,"[-0.5, 0]","[0.5, 0]",choice,right,left,,,silver,gold,deval,val,,,,,,,,,0.0,0.0,0.0,0.0,,,,,1.0,choice_test_start,90.0,723.1789350305626,0.0,,19.0,,,,141.0,1.0,right,2022_Aug_01_1040,habits_v_MRI,5.0,40.0,1.0,5.0,30.0,15.0,5.0,15.0,30.0,30.0,60.0,RR,59.96743238193445,
13.0,4.0,resp1_vs_resp2,,,,,silver,stim/right_resp_img.png,stim/left_resp_img.png,"[-0.5, 0]","[0.5, 0]",choice,right,left,,,silver,gold,deval,val,,,,,,,,,0.0,0.0,0.0,0.0,,,,,1.0,choice_resp,,725.9162720087334,2.733157367212698,,,right,silver,,141.0,1.0,right,2022_Aug_01_1040,habits_v_MRI,5.0,40.0,1.0,5.0,30.0,15.0,5.0,15.0,30.0,30.0,60.0,RR,59.96743238193445,
13.0,4.0,resp1_vs_resp2,,,,,silver,stim/right_resp_img.png,stim/left_resp_img.png,"[-0.5, 0]","[0.5, 0]",choice,right,left,,,silver,gold,deval,val,,,,,,,,,0.0,0.0,0.0,0.0,,,,,1.0,choice_resp,,728.1327074131696,4.933038251387188,,,left,gold,0.0,141.0,1.0,right,2022_Aug_01_1040,habits_v_MRI,5.0,40.0,1.0,5.0,30.0,15.0,5.0,15.0,30.0,30.0,60.0,RR,59.96743238193445,
13.0,4.0,resp1_vs_resp2,,,,,silver,stim/right_resp_img.png,stim/left_resp_img.png,"[-0.5, 0]","[0.5, 0]",choice,right,left,,,silver,gold,deval,val,,,,,,,,,0.0,0.0,0.0,0.0,,,,,1.0,choice_resp,,732.9820528625569,9.799317092692943,,,right,silver,,141.0,1.0,right,2022_Aug_01_1040,habits_v_MRI,5.0,40.0,1.0,5.0,30.0,15.0,5.0,15.0,30.0,30.0,60.0,RR,59.96743238193445,
13.0,4.0,resp1_vs_resp2,,,,,silver,stim/right_resp_img.png,stim/left_resp_img.png,"[-0.5, 0]","[0.5, 0]",choice,right,left,,,silver,gold,deval,val,,,,,,,,,0.0,0.0,0.0,0.0,,,,,1.0,choice_resp,,735.6654035657411,12.465886890975526,,,left,gold,0.0,141.0,1.0,right,2022_Aug_01_1040,habits_v_MRI,5.0,40.0,1.0,5.0,30.0,15.0,5.0,15.0,30.0,30.0,60.0,RR,59.96743238193445,
13.0,1.0,resp2,stim/right_resp_img.png,"[-0.5, 0]",right,stim/silver_coin.png,silver,,,,,training,,,silver,deval,,,,,,,,,,,,,,,,,0.0,0.0,0.0,1.0,,instr_before_contingency_test,7.0,813.0951683310268,,,,,,,141.0,1.0,right,2022_Aug_01_1040,habits_v_MRI,5.0,40.0,1.0,5.0,30.0,15.0,5.0,15.0,30.0,30.0,60.0,RR,59.96743238193445,
13.0,1.0,resp2,stim/right_resp_img.png,"[-0.5, 0]",right,stim/silver_coin.png,silver,,,,,training,,,silver,deval,,,,,,,,,,,,,,,,,0.0,0.0,0.0,1.0,,pause_before_contingency_question,1.0,820.1088399666187,,,,,,,141.0,1.0,right,2022_Aug_01_1040,habits_v_MRI,5.0,40.0,1.0,5.0,30.0,15.0,5.0,15.0,30.0,30.0,60.0,RR,59.96743238193445,
13.0,1.0,resp2,stim/right_resp_img.png,"[-0.5, 0]",right,stim/silver_coin.png,silver,,,,,training,,,silver,deval,,,,,,,,,,,,,,,,,0.0,0.0,0.0,1.0,,contingency_start_coin,,821.2067032127234,0.0,,,,,,141.0,1.0,right,2022_Aug_01_1040,habits_v_MRI,5.0,40.0,1.0,5.0,30.0,15.0,5.0,15.0,30.0,30.0,60.0,RR,59.96743238193445,
13.0,1.0,resp2,stim/right_resp_img.png,"[-0.5, 0]",right,stim/silver_coin.png,silver,,,,,training,,,silver,deval,,,,,,,,,,,,,,,,,0.0,0.0,0.0,1.0,,contingency_resp,,831.2593288341886,10.132717676693574,,,right,,,141.0,1.0,right,2022_Aug_01_1040,habits_v_MRI,5.0,40.0,1.0,5.0,30.0,15.0,5.0,15.0,30.0,30.0,60.0,RR,59.96743238193445,
13.0,0.0,resp1,stim/left_resp_img.png,"[0.5, 0]",left,stim/gold_coin.png,silver,,,,,training,,,gold,val,,,,,,,,,,,,,,,,,0.0,1.0,1.0,0.0,,pause_before_contingency_question,1.0,831.2761686811573,,,,,,,141.0,1.0,right,2022_Aug_01_1040,habits_v_MRI,5.0,40.0,1.0,5.0,30.0,15.0,5.0,15.0,30.0,30.0,60.0,RR,59.96743238193445,
13.0,0.0,resp1,stim/left_resp_img.png,"[0.5, 0]",left,stim/gold_coin.png,silver,,,,,training,,,gold,val,,,,,,,,,,,,,,,,,0.0,1.0,1.0,0.0,,contingency_start_coin,,832.4224383497785,0.0,,,,,,141.0,1.0,right,2022_Aug_01_1040,habits_v_MRI,5.0,40.0,1.0,5.0,30.0,15.0,5.0,15.0,30.0,30.0,60.0,RR,59.96743238193445,
13.0,0.0,resp1,stim/left_resp_img.png,"[0.5, 0]",left,stim/gold_coin.png,silver,,,,,training,,,gold,val,,,,,,,,,,,,,,,,,0.0,1.0,1.0,0.0,,contingency_resp,,842.5748670283938,10.282634717907058,,,left,,,141.0,1.0,right,2022_Aug_01_1040,habits_v_MRI,5.0,40.0,1.0,5.0,30.0,15.0,5.0,15.0,30.0,30.0,60.0,RR,59.96743238193445,
13.0,0.0,resp1,stim/left_resp_img.png,"[0.5, 0]",left,stim/gold_coin.png,silver,,,,,training,,,gold,val,,,,,,,,,,,,,,,,,1.0,0.0,2.0,0.0,,pause_before_contingency_question,1.0,842.5917839985923,,,,,,,141.0,1.0,right,2022_Aug_01_1040,habits_v_MRI,5.0,40.0,1.0,5.0,30.0,15.0,5.0,15.0,30.0,30.0,60.0,RR,59.96743238193445,
13.0,0.0,resp1,stim/left_resp_img.png,"[0.5, 0]",left,stim/gold_coin.png,silver,,,,,training,,,gold,val,,,,,,,,,,,,,,,,,1.0,0.0,2.0,0.0,,contingency_start_stim,,843.6269108531415,0.0,,,,,,141.0,1.0,right,2022_Aug_01_1040,habits_v_MRI,5.0,40.0,1.0,5.0,30.0,15.0,5.0,15.0,30.0,30.0,60.0,RR,59.96743238193445,
13.0,0.0,resp1,stim/left_resp_img.png,"[0.5, 0]",left,stim/gold_coin.png,silver,,,,,training,,,gold,val,,,,,,,,,,,,,,,,,1.0,0.0,2.0,0.0,,contingency_resp,,846.0245794437069,2.416402795672184,,,left,,,141.0,1.0,right,2022_Aug_01_1040,habits_v_MRI,5.0,40.0,1.0,5.0,30.0,15.0,5.0,15.0,30.0,30.0,60.0,RR,59.96743238193445,
13.0,1.0,resp2,stim/right_resp_img.png,"[-0.5, 0]",right,stim/silver_coin.png,silver,,,,,training,,,silver,deval,,,,,,,,,,,,,,,,,1.0,1.0,3.0,1.0,,pause_before_contingency_question,1.0,846.0415600479464,,,,,,,141.0,1.0,right,2022_Aug_01_1040,habits_v_MRI,5.0,40.0,1.0,5.0,30.0,15.0,5.0,15.0,30.0,30.0,60.0,RR,59.96743238193445,
13.0,1.0,resp2,stim/right_resp_img.png,"[-0.5, 0]",right,stim/silver_coin.png,silver,,,,,training,,,silver,deval,,,,,,,,,,,,,,,,,1.0,1.0,3.0,1.0,,contingency_start_stim,,847.0763877932914,0.0,,,,,,141.0,1.0,right,2022_Aug_01_1040,habits_v_MRI,5.0,40.0,1.0,5.0,30.0,15.0,5.0,15.0,30.0,30.0,60.0,RR,59.96743238193445,
13.0,1.0,resp2,stim/right_resp_img.png,"[-0.5, 0]",right,stim/silver_coin.png,silver,,,,,training,,,silver,deval,,,,,,,,,,,,,,,,,1.0,1.0,3.0,1.0,,contingency_resp,,848.4577769267198,1.399827748304233,,,right,,,141.0,1.0,right,2022_Aug_01_1040,habits_v_MRI,5.0,40.0,1.0,5.0,30.0,15.0,5.0,15.0,30.0,30.0,60.0,RR,59.96743238193445,
,,,,,,,,,,,,,,,,,,,,,,,,,,,,,,,,,,,,,,goodbye_msg_start,3.0,848.491644297028,1.399827748304233,,,,,,141.0,1.0,right,2022_Aug_01_1040,habits_v_MRI,5.0,40.0,1.0,5.0,30.0,15.0,5.0,15.0,30.0,30.0,60.0,RR,59.96743238193445,
,,,,,,,,,,,,,,,,,,,,,,,,,,,,,,,,,,,,,,goodbye_msg_end,,851.5067059105786,,,,,,,,,,,,,,,,,,,,,,,,,
