list,trial_num_python,condition,stimulus,position,corrResp,coin_img,devalued_coin,stimulus_choice1,stimulus_choice2,position1,position2,phase,corrResp1,corrResp2,outcome,cond_val,outcome_choice1,outcome_choice2,cond_val1,cond_val2,blockLoop.thisRepN,blockLoop.thisTrialN,blockLoop.thisN,blockLoop.thisIndex,trialLoop.thisRepN,trialLoop.thisTrialN,trialLoop.thisN,trialLoop.thisIndex,choice_trialLoop.thisRepN,choice_trialLoop.thisTrialN,choice_trialLoop.thisN,choice_trialLoop.thisIndex,contingency_trialLoop.thisRepN,contingency_trialLoop.thisTrialN,contingency_trialLoop.thisN,contingency_trialLoop.thisIndex,run,event,duration,globalClock_t,routineClock_t,trial,nResp_untilRnf,resp,selected_coin,wasRnf,participant,task_ordering,hand,date,expName,n_repeat_training,credits_per_rnf,cost_response,min_resp_bet_rnf,max_resp_bet_rnf,mean_resp_bet_rnf,sigma_resp_bet_rnf,min_ITI,max_ITI,min_trial_duration,max_trial_duration,schedule,frameRate,Unnamed: 65
12.0,0.0,resp1,stim/left_resp_img.png,"[0.5, 0]",left,stim/silver_coin.png,gold,,,,,training,,,silver,val,,,,,0.0,0.0,0.0,0.0,0.0,0.0,0.0,0.0,,,,,,,,,0.0,instr_before_block,6.0,0.0041632124739408,,,,,,,236.0,2.0,right,2023_Sep_11_1349,habits_v_MRI,5.0,40.0,1.0,5.0,30.0,15.0,5.0,15.0,30.0,30.0,60.0,RR,59.68528812552524,
12.0,0.0,resp1,stim/left_resp_img.png,"[0.5, 0]",left,stim/silver_coin.png,gold,,,,,training,,,silver,val,,,,,0.0,0.0,0.0,0.0,0.0,0.0,0.0,0.0,,,,,,,,,0.0,training_period_start,30.0,6.042338847431893,0.0,0.0,11.0,,,,236.0,2.0,right,2023_Sep_11_1349,habits_v_MRI,5.0,40.0,1.0,5.0,30.0,15.0,5.0,15.0,30.0,30.0,60.0,RR,59.68528812552524,
12.0,0.0,resp1,stim/left_resp_img.png,"[0.5, 0]",left,stim/silver_coin.png,gold,,,,,training,,,silver,val,,,,,0.0,0.0,0.0,0.0,0.0,0.0,0.0,0.0,,,,,,,,,0.0,training_resp,,7.174135591640152,1.1485704114274995,0.0,,left,silver,0.0,236.0,2.0,right,2023_Sep_11_1349,habits_v_MRI,5.0,40.0,1.0,5.0,30.0,15.0,5.0,15.0,30.0,30.0,60.0,RR,59.68528812552524,
12.0,0.0,resp1,stim/left_resp_img.png,"[0.5, 0]",left,stim/silver_coin.png,gold,,,,,training,,,silver,val,,,,,0.0,0.0,0.0,0.0,0.0,0.0,0.0,0.0,,,,,,,,,0.0,training_resp,,11.073795045140288,5.0483539079559705,0.0,,left,silver,0.0,236.0,2.0,right,2023_Sep_11_1349,habits_v_MRI,5.0,40.0,1.0,5.0,30.0,15.0,5.0,15.0,30.0,30.0,60.0,RR,59.68528812552524,
12.0,0.0,resp1,stim/left_resp_img.png,"[0.5, 0]",left,stim/silver_coin.png,gold,,,,,training,,,silver,val,,,,,0.0,0.0,0.0,0.0,0.0,0.0,0.0,0.0,,,,,,,,,0.0,training_resp,,12.790251156342492,6.764816763814451,0.0,,left,silver,0.0,236.0,2.0,right,2023_Sep_11_1349,habits_v_MRI,5.0,40.0,1.0,5.0,30.0,15.0,5.0,15.0,30.0,30.0,60.0,RR,59.68528812552524,
12.0,0.0,resp1,stim/left_resp_img.png,"[0.5, 0]",left,stim/silver_coin.png,gold,,,,,training,,,silver,val,,,,,0.0,0.0,0.0,0.0,0.0,0.0,0.0,0.0,,,,,,,,,0.0,training_resp,,14.206908756821576,8.181510726790293,0.0,,left,silver,0.0,236.0,2.0,right,2023_Sep_11_1349,habits_v_MRI,5.0,40.0,1.0,5.0,30.0,15.0,5.0,15.0,30.0,30.0,60.0,RR,59.68528812552524,
12.0,0.0,resp1,stim/left_resp_img.png,"[0.5, 0]",left,stim/silver_coin.png,gold,,,,,training,,,silver,val,,,,,0.0,0.0,0.0,0.0,0.0,0.0,0.0,0.0,,,,,,,,,0.0,training_resp,,15.273346261568804,9.24796054786566,0.0,,left,silver,0.0,236.0,2.0,right,2023_Sep_11_1349,habits_v_MRI,5.0,40.0,1.0,5.0,30.0,15.0,5.0,15.0,30.0,30.0,60.0,RR,59.68528812552524,
12.0,0.0,resp1,stim/left_resp_img.png,"[0.5, 0]",left,stim/silver_coin.png,gold,,,,,training,,,silver,val,,,,,0.0,0.0,0.0,0.0,0.0,0.0,0.0,0.0,,,,,,,,,0.0,training_resp,,16.490175234970593,10.464683072994376,0.0,,left,silver,0.0,236.0,2.0,right,2023_Sep_11_1349,habits_v_MRI,5.0,40.0,1.0,5.0,30.0,15.0,5.0,15.0,30.0,30.0,60.0,RR,59.68528812552524,
12.0,0.0,resp1,stim/left_resp_img.png,"[0.5, 0]",left,stim/silver_coin.png,gold,,,,,training,,,silver,val,,,,,0.0,0.0,0.0,0.0,0.0,0.0,0.0,0.0,,,,,,,,,0.0,training_resp,,17.55737928457893,11.531576281917296,0.0,,left,silver,0.0,236.0,2.0,right,2023_Sep_11_1349,habits_v_MRI,5.0,40.0,1.0,5.0,30.0,15.0,5.0,15.0,30.0,30.0,60.0,RR,59.68528812552524,
12.0,0.0,resp1,stim/left_resp_img.png,"[0.5, 0]",left,stim/silver_coin.png,gold,,,,,training,,,silver,val,,,,,0.0,0.0,0.0,0.0,0.0,0.0,0.0,0.0,,,,,,,,,0.0,training_resp,,18.807691664807862,12.781653185662435,0.0,,left,silver,0.0,236.0,2.0,right,2023_Sep_11_1349,habits_v_MRI,5.0,40.0,1.0,5.0,30.0,15.0,5.0,15.0,30.0,30.0,60.0,RR,59.68528812552524,
12.0,0.0,resp1,stim/left_resp_img.png,"[0.5, 0]",left,stim/silver_coin.png,gold,,,,,training,,,silver,val,,,,,0.0,0.0,0.0,0.0,0.0,0.0,0.0,0.0,,,,,,,,,0.0,training_resp,,20.057214333743104,14.031457957184102,0.0,,left,silver,0.0,236.0,2.0,right,2023_Sep_11_1349,habits_v_MRI,5.0,40.0,1.0,5.0,30.0,15.0,5.0,15.0,30.0,30.0,60.0,RR,59.68528812552524,
12.0,0.0,resp1,stim/left_resp_img.png,"[0.5, 0]",left,stim/silver_coin.png,gold,,,,,training,,,silver,val,,,,,0.0,0.0,0.0,0.0,0.0,0.0,0.0,0.0,,,,,,,,,0.0,training_resp,,21.240273985536987,15.214580950099844,0.0,,left,silver,0.0,236.0,2.0,right,2023_Sep_11_1349,habits_v_MRI,5.0,40.0,1.0,5.0,30.0,15.0,5.0,15.0,30.0,30.0,60.0,RR,59.68528812552524,
12.0,0.0,resp1,stim/left_resp_img.png,"[0.5, 0]",left,stim/silver_coin.png,gold,,,,,training,,,silver,val,,,,,0.0,0.0,0.0,0.0,0.0,0.0,0.0,0.0,,,,,,,,,0.0,training_resp,,22.373590036910173,16.347918408424448,0.0,16.0,left,silver,1.0,236.0,2.0,right,2023_Sep_11_1349,habits_v_MRI,5.0,40.0,1.0,5.0,30.0,15.0,5.0,15.0,30.0,30.0,60.0,RR,59.68528812552524,
12.0,0.0,resp1,stim/left_resp_img.png,"[0.5, 0]",left,stim/silver_coin.png,gold,,,,,training,,,silver,val,,,,,0.0,0.0,0.0,0.0,0.0,0.0,0.0,0.0,,,,,,,,,0.0,training_resp,,23.557393360384594,17.531582146835717,0.0,,left,silver,0.0,236.0,2.0,right,2023_Sep_11_1349,habits_v_MRI,5.0,40.0,1.0,5.0,30.0,15.0,5.0,15.0,30.0,30.0,60.0,RR,59.68528812552524,
12.0,0.0,resp1,stim/left_resp_img.png,"[0.5, 0]",left,stim/silver_coin.png,gold,,,,,training,,,silver,val,,,,,0.0,0.0,0.0,0.0,0.0,0.0,0.0,0.0,,,,,,,,,0.0,training_resp,,24.64017316758691,18.614435558767585,0.0,,left,silver,0.0,236.0,2.0,right,2023_Sep_11_1349,habits_v_MRI,5.0,40.0,1.0,5.0,30.0,15.0,5.0,15.0,30.0,30.0,60.0,RR,59.68528812552524,
12.0,0.0,resp1,stim/left_resp_img.png,"[0.5, 0]",left,stim/silver_coin.png,gold,,,,,training,,,silver,val,,,,,0.0,0.0,0.0,0.0,0.0,0.0,0.0,0.0,,,,,,,,,0.0,training_resp,,25.873232423498848,19.84760771436231,0.0,,left,silver,0.0,236.0,2.0,right,2023_Sep_11_1349,habits_v_MRI,5.0,40.0,1.0,5.0,30.0,15.0,5.0,15.0,30.0,30.0,60.0,RR,59.68528812552524,
12.0,0.0,resp1,stim/left_resp_img.png,"[0.5, 0]",left,stim/silver_coin.png,gold,,,,,training,,,silver,val,,,,,0.0,0.0,0.0,0.0,0.0,0.0,0.0,0.0,,,,,,,,,0.0,training_resp,,26.906934885035295,20.88093804681193,0.0,,left,silver,0.0,236.0,2.0,right,2023_Sep_11_1349,habits_v_MRI,5.0,40.0,1.0,5.0,30.0,15.0,5.0,15.0,30.0,30.0,60.0,RR,59.68528812552524,
12.0,0.0,resp1,stim/left_resp_img.png,"[0.5, 0]",left,stim/silver_coin.png,gold,,,,,training,,,silver,val,,,,,0.0,0.0,0.0,0.0,0.0,0.0,0.0,0.0,,,,,,,,,0.0,training_resp,,27.90656510191548,21.880843328375704,0.0,,left,silver,0.0,236.0,2.0,right,2023_Sep_11_1349,habits_v_MRI,5.0,40.0,1.0,5.0,30.0,15.0,5.0,15.0,30.0,30.0,60.0,RR,59.68528812552524,
12.0,0.0,resp1,stim/left_resp_img.png,"[0.5, 0]",left,stim/silver_coin.png,gold,,,,,training,,,silver,val,,,,,0.0,0.0,0.0,0.0,0.0,0.0,0.0,0.0,,,,,,,,,0.0,training_resp,,28.989920550880925,22.96418059609277,0.0,,left,silver,0.0,236.0,2.0,right,2023_Sep_11_1349,habits_v_MRI,5.0,40.0,1.0,5.0,30.0,15.0,5.0,15.0,30.0,30.0,60.0,RR,59.68528812552524,
12.0,0.0,resp1,stim/left_resp_img.png,"[0.5, 0]",left,stim/silver_coin.png,gold,,,,,training,,,silver,val,,,,,0.0,0.0,0.0,0.0,0.0,0.0,0.0,0.0,,,,,,,,,0.0,training_resp,,30.10642276034196,24.08069277591494,0.0,,left,silver,0.0,236.0,2.0,right,2023_Sep_11_1349,habits_v_MRI,5.0,40.0,1.0,5.0,30.0,15.0,5.0,15.0,30.0,30.0,60.0,RR,59.68528812552524,
12.0,0.0,resp1,stim/left_resp_img.png,"[0.5, 0]",left,stim/silver_coin.png,gold,,,,,training,,,silver,val,,,,,0.0,0.0,0.0,0.0,0.0,0.0,0.0,0.0,,,,,,,,,0.0,training_resp,,31.27319641289796,25.247303676980664,0.0,,left,silver,0.0,236.0,2.0,right,2023_Sep_11_1349,habits_v_MRI,5.0,40.0,1.0,5.0,30.0,15.0,5.0,15.0,30.0,30.0,60.0,RR,59.68528812552524,
12.0,0.0,resp1,stim/left_resp_img.png,"[0.5, 0]",left,stim/silver_coin.png,gold,,,,,training,,,silver,val,,,,,0.0,0.0,0.0,0.0,0.0,0.0,0.0,0.0,,,,,,,,,0.0,training_resp,,32.33974740382109,26.313904519711286,0.0,,left,silver,0.0,236.0,2.0,right,2023_Sep_11_1349,habits_v_MRI,5.0,40.0,1.0,5.0,30.0,15.0,5.0,15.0,30.0,30.0,60.0,RR,59.68528812552524,
12.0,0.0,resp1,stim/left_resp_img.png,"[0.5, 0]",left,stim/silver_coin.png,gold,,,,,training,,,silver,val,,,,,0.0,0.0,0.0,0.0,0.0,0.0,0.0,0.0,,,,,,,,,0.0,training_resp,,33.423221617385934,27.39728782703969,0.0,,left,silver,0.0,236.0,2.0,right,2023_Sep_11_1349,habits_v_MRI,5.0,40.0,1.0,5.0,30.0,15.0,5.0,15.0,30.0,30.0,60.0,RR,59.68528812552524,
12.0,0.0,resp1,stim/left_resp_img.png,"[0.5, 0]",left,stim/silver_coin.png,gold,,,,,training,,,silver,val,,,,,0.0,0.0,0.0,0.0,0.0,0.0,0.0,0.0,,,,,,,,,0.0,training_resp,,34.6395488470007,28.61379041771943,0.0,,left,silver,0.0,236.0,2.0,right,2023_Sep_11_1349,habits_v_MRI,5.0,40.0,1.0,5.0,30.0,15.0,5.0,15.0,30.0,30.0,60.0,RR,59.68528812552524,
12.0,0.0,resp1,stim/left_resp_img.png,"[0.5, 0]",left,stim/silver_coin.png,gold,,,,,training,,,silver,val,,,,,0.0,0.0,0.0,0.0,0.0,0.0,0.0,0.0,,,,,,,,,0.0,ITI_start,26.666666666666668,35.70729833404039,29.680384515793776,,,,,,236.0,2.0,right,2023_Sep_11_1349,habits_v_MRI,5.0,40.0,1.0,5.0,30.0,15.0,5.0,15.0,30.0,30.0,60.0,RR,59.68528812552524,
12.0,1.0,resp2,stim/right_resp_img.png,"[-0.5, 0]",right,stim/gold_coin.png,gold,,,,,training,,,gold,deval,,,,,0.0,0.0,0.0,0.0,0.0,1.0,1.0,1.0,,,,,,,,,0.0,training_period_start,30.0,62.4090637038662,0.0,1.0,13.0,,,,236.0,2.0,right,2023_Sep_11_1349,habits_v_MRI,5.0,40.0,1.0,5.0,30.0,15.0,5.0,15.0,30.0,30.0,60.0,RR,59.68528812552524,
12.0,1.0,resp2,stim/right_resp_img.png,"[-0.5, 0]",right,stim/gold_coin.png,gold,,,,,training,,,gold,deval,,,,,0.0,0.0,0.0,0.0,0.0,1.0,1.0,1.0,,,,,,,,,0.0,training_resp,,63.27084868597922,0.8810682480052492,1.0,,right,gold,0.0,236.0,2.0,right,2023_Sep_11_1349,habits_v_MRI,5.0,40.0,1.0,5.0,30.0,15.0,5.0,15.0,30.0,30.0,60.0,RR,59.68528812552524,
12.0,1.0,resp2,stim/right_resp_img.png,"[-0.5, 0]",right,stim/gold_coin.png,gold,,,,,training,,,gold,deval,,,,,0.0,0.0,0.0,0.0,0.0,1.0,1.0,1.0,,,,,,,,,0.0,training_resp,,64.12098271403192,1.7314046157498524,1.0,,right,gold,0.0,236.0,2.0,right,2023_Sep_11_1349,habits_v_MRI,5.0,40.0,1.0,5.0,30.0,15.0,5.0,15.0,30.0,30.0,60.0,RR,59.68528812552524,
12.0,1.0,resp2,stim/right_resp_img.png,"[-0.5, 0]",right,stim/gold_coin.png,gold,,,,,training,,,gold,deval,,,,,0.0,0.0,0.0,0.0,0.0,1.0,1.0,1.0,,,,,,,,,0.0,training_resp,,65.12088330366169,2.7310612247656536,1.0,,right,gold,0.0,236.0,2.0,right,2023_Sep_11_1349,habits_v_MRI,5.0,40.0,1.0,5.0,30.0,15.0,5.0,15.0,30.0,30.0,60.0,RR,59.68528812552524,
12.0,1.0,resp2,stim/right_resp_img.png,"[-0.5, 0]",right,stim/gold_coin.png,gold,,,,,training,,,gold,deval,,,,,0.0,0.0,0.0,0.0,0.0,1.0,1.0,1.0,,,,,,,,,0.0,training_resp,,66.12087157382484,3.731032193418287,1.0,,right,gold,0.0,236.0,2.0,right,2023_Sep_11_1349,habits_v_MRI,5.0,40.0,1.0,5.0,30.0,15.0,5.0,15.0,30.0,30.0,60.0,RR,59.68528812552524,
12.0,1.0,resp2,stim/right_resp_img.png,"[-0.5, 0]",right,stim/gold_coin.png,gold,,,,,training,,,gold,deval,,,,,0.0,0.0,0.0,0.0,0.0,1.0,1.0,1.0,,,,,,,,,0.0,training_resp,,67.17051898958016,4.780864647354974,1.0,,right,gold,0.0,236.0,2.0,right,2023_Sep_11_1349,habits_v_MRI,5.0,40.0,1.0,5.0,30.0,15.0,5.0,15.0,30.0,30.0,60.0,RR,59.68528812552524,
12.0,1.0,resp2,stim/right_resp_img.png,"[-0.5, 0]",right,stim/gold_coin.png,gold,,,,,training,,,gold,deval,,,,,0.0,0.0,0.0,0.0,0.0,1.0,1.0,1.0,,,,,,,,,0.0,training_resp,,68.15385294361658,5.764106228925812,1.0,,right,gold,0.0,236.0,2.0,right,2023_Sep_11_1349,habits_v_MRI,5.0,40.0,1.0,5.0,30.0,15.0,5.0,15.0,30.0,30.0,60.0,RR,59.68528812552524,
12.0,1.0,resp2,stim/right_resp_img.png,"[-0.5, 0]",right,stim/gold_coin.png,gold,,,,,training,,,gold,deval,,,,,0.0,0.0,0.0,0.0,0.0,1.0,1.0,1.0,,,,,,,,,0.0,training_resp,,69.18706480471155,6.797416913897905,1.0,,right,gold,0.0,236.0,2.0,right,2023_Sep_11_1349,habits_v_MRI,5.0,40.0,1.0,5.0,30.0,15.0,5.0,15.0,30.0,30.0,60.0,RR,59.68528812552524,
12.0,1.0,resp2,stim/right_resp_img.png,"[-0.5, 0]",right,stim/gold_coin.png,gold,,,,,training,,,gold,deval,,,,,0.0,0.0,0.0,0.0,0.0,1.0,1.0,1.0,,,,,,,,,0.0,training_resp,,70.13697282812609,7.747360126822969,1.0,,right,gold,0.0,236.0,2.0,right,2023_Sep_11_1349,habits_v_MRI,5.0,40.0,1.0,5.0,30.0,15.0,5.0,15.0,30.0,30.0,60.0,RR,59.68528812552524,
12.0,1.0,resp2,stim/right_resp_img.png,"[-0.5, 0]",right,stim/gold_coin.png,gold,,,,,training,,,gold,deval,,,,,0.0,0.0,0.0,0.0,0.0,1.0,1.0,1.0,,,,,,,,,0.0,training_resp,,70.82011062996025,8.430545434497617,1.0,,right,gold,0.0,236.0,2.0,right,2023_Sep_11_1349,habits_v_MRI,5.0,40.0,1.0,5.0,30.0,15.0,5.0,15.0,30.0,30.0,60.0,RR,59.68528812552524,
12.0,1.0,resp2,stim/right_resp_img.png,"[-0.5, 0]",right,stim/gold_coin.png,gold,,,,,training,,,gold,deval,,,,,0.0,0.0,0.0,0.0,0.0,1.0,1.0,1.0,,,,,,,,,0.0,training_resp,,71.57017888295013,9.180569407353689,1.0,,right,gold,0.0,236.0,2.0,right,2023_Sep_11_1349,habits_v_MRI,5.0,40.0,1.0,5.0,30.0,15.0,5.0,15.0,30.0,30.0,60.0,RR,59.68528812552524,
12.0,1.0,resp2,stim/right_resp_img.png,"[-0.5, 0]",right,stim/gold_coin.png,gold,,,,,training,,,gold,deval,,,,,0.0,0.0,0.0,0.0,0.0,1.0,1.0,1.0,,,,,,,,,0.0,training_resp,,73.1869521982735,10.797135691051151,1.0,,right,gold,0.0,236.0,2.0,right,2023_Sep_11_1349,habits_v_MRI,5.0,40.0,1.0,5.0,30.0,15.0,5.0,15.0,30.0,30.0,60.0,RR,59.68528812552524,
12.0,1.0,resp2,stim/right_resp_img.png,"[-0.5, 0]",right,stim/gold_coin.png,gold,,,,,training,,,gold,deval,,,,,0.0,0.0,0.0,0.0,0.0,1.0,1.0,1.0,,,,,,,,,0.0,training_resp,,74.00336675652761,11.613781620342706,1.0,,right,gold,0.0,236.0,2.0,right,2023_Sep_11_1349,habits_v_MRI,5.0,40.0,1.0,5.0,30.0,15.0,5.0,15.0,30.0,30.0,60.0,RR,59.68528812552524,
12.0,1.0,resp2,stim/right_resp_img.png,"[-0.5, 0]",right,stim/gold_coin.png,gold,,,,,training,,,gold,deval,,,,,0.0,0.0,0.0,0.0,0.0,1.0,1.0,1.0,,,,,,,,,0.0,training_resp,,74.73673670650169,12.34701051902448,1.0,18.0,right,gold,1.0,236.0,2.0,right,2023_Sep_11_1349,habits_v_MRI,5.0,40.0,1.0,5.0,30.0,15.0,5.0,15.0,30.0,30.0,60.0,RR,59.68528812552524,
12.0,1.0,resp2,stim/right_resp_img.png,"[-0.5, 0]",right,stim/gold_coin.png,gold,,,,,training,,,gold,deval,,,,,0.0,0.0,0.0,0.0,0.0,1.0,1.0,1.0,,,,,,,,,0.0,training_resp,,75.53714443564422,13.147292152416412,1.0,,right,gold,0.0,236.0,2.0,right,2023_Sep_11_1349,habits_v_MRI,5.0,40.0,1.0,5.0,30.0,15.0,5.0,15.0,30.0,30.0,60.0,RR,59.68528812552524,
12.0,1.0,resp2,stim/right_resp_img.png,"[-0.5, 0]",right,stim/gold_coin.png,gold,,,,,training,,,gold,deval,,,,,0.0,0.0,0.0,0.0,0.0,1.0,1.0,1.0,,,,,,,,,0.0,training_resp,,76.23686324212031,13.847105677328727,1.0,,right,gold,0.0,236.0,2.0,right,2023_Sep_11_1349,habits_v_MRI,5.0,40.0,1.0,5.0,30.0,15.0,5.0,15.0,30.0,30.0,60.0,RR,59.68528812552524,
12.0,1.0,resp2,stim/right_resp_img.png,"[-0.5, 0]",right,stim/gold_coin.png,gold,,,,,training,,,gold,deval,,,,,0.0,0.0,0.0,0.0,0.0,1.0,1.0,1.0,,,,,,,,,0.0,training_resp,,76.95349881983202,14.563705772281535,1.0,,right,gold,0.0,236.0,2.0,right,2023_Sep_11_1349,habits_v_MRI,5.0,40.0,1.0,5.0,30.0,15.0,5.0,15.0,30.0,30.0,60.0,RR,59.68528812552524,
12.0,1.0,resp2,stim/right_resp_img.png,"[-0.5, 0]",right,stim/gold_coin.png,gold,,,,,training,,,gold,deval,,,,,0.0,0.0,0.0,0.0,0.0,1.0,1.0,1.0,,,,,,,,,0.0,training_resp,,77.6700036098573,15.280318183564304,1.0,,right,gold,0.0,236.0,2.0,right,2023_Sep_11_1349,habits_v_MRI,5.0,40.0,1.0,5.0,30.0,15.0,5.0,15.0,30.0,30.0,60.0,RR,59.68528812552524,
12.0,1.0,resp2,stim/right_resp_img.png,"[-0.5, 0]",right,stim/gold_coin.png,gold,,,,,training,,,gold,deval,,,,,0.0,0.0,0.0,0.0,0.0,1.0,1.0,1.0,,,,,,,,,0.0,training_resp,,78.42015690416702,16.03024215955702,1.0,,right,gold,0.0,236.0,2.0,right,2023_Sep_11_1349,habits_v_MRI,5.0,40.0,1.0,5.0,30.0,15.0,5.0,15.0,30.0,30.0,60.0,RR,59.68528812552524,
12.0,1.0,resp2,stim/right_resp_img.png,"[-0.5, 0]",right,stim/gold_coin.png,gold,,,,,training,,,gold,deval,,,,,0.0,0.0,0.0,0.0,0.0,1.0,1.0,1.0,,,,,,,,,0.0,training_resp,,79.21991421383609,16.830196530490866,1.0,,right,gold,0.0,236.0,2.0,right,2023_Sep_11_1349,habits_v_MRI,5.0,40.0,1.0,5.0,30.0,15.0,5.0,15.0,30.0,30.0,60.0,RR,59.68528812552524,
12.0,1.0,resp2,stim/right_resp_img.png,"[-0.5, 0]",right,stim/gold_coin.png,gold,,,,,training,,,gold,deval,,,,,0.0,0.0,0.0,0.0,0.0,1.0,1.0,1.0,,,,,,,,,0.0,training_resp,,79.91992509325974,17.53023292231046,1.0,,right,gold,0.0,236.0,2.0,right,2023_Sep_11_1349,habits_v_MRI,5.0,40.0,1.0,5.0,30.0,15.0,5.0,15.0,30.0,30.0,60.0,RR,59.68528812552524,
12.0,1.0,resp2,stim/right_resp_img.png,"[-0.5, 0]",right,stim/gold_coin.png,gold,,,,,training,,,gold,deval,,,,,0.0,0.0,0.0,0.0,0.0,1.0,1.0,1.0,,,,,,,,,0.0,training_resp,,80.61983040414816,18.230085155686535,1.0,,right,gold,0.0,236.0,2.0,right,2023_Sep_11_1349,habits_v_MRI,5.0,40.0,1.0,5.0,30.0,15.0,5.0,15.0,30.0,30.0,60.0,RR,59.68528812552524,
12.0,1.0,resp2,stim/right_resp_img.png,"[-0.5, 0]",right,stim/gold_coin.png,gold,,,,,training,,,gold,deval,,,,,0.0,0.0,0.0,0.0,0.0,1.0,1.0,1.0,,,,,,,,,0.0,training_resp,,81.30323564627179,18.913448170394982,1.0,,right,gold,0.0,236.0,2.0,right,2023_Sep_11_1349,habits_v_MRI,5.0,40.0,1.0,5.0,30.0,15.0,5.0,15.0,30.0,30.0,60.0,RR,59.68528812552524,
12.0,1.0,resp2,stim/right_resp_img.png,"[-0.5, 0]",right,stim/gold_coin.png,gold,,,,,training,,,gold,deval,,,,,0.0,0.0,0.0,0.0,0.0,1.0,1.0,1.0,,,,,,,,,0.0,training_resp,,81.903052308915,19.513353393309444,1.0,,right,gold,0.0,236.0,2.0,right,2023_Sep_11_1349,habits_v_MRI,5.0,40.0,1.0,5.0,30.0,15.0,5.0,15.0,30.0,30.0,60.0,RR,59.68528812552524,
12.0,1.0,resp2,stim/right_resp_img.png,"[-0.5, 0]",right,stim/gold_coin.png,gold,,,,,training,,,gold,deval,,,,,0.0,0.0,0.0,0.0,0.0,1.0,1.0,1.0,,,,,,,,,0.0,training_resp,,82.53663946615234,20.146696863177567,1.0,,right,gold,0.0,236.0,2.0,right,2023_Sep_11_1349,habits_v_MRI,5.0,40.0,1.0,5.0,30.0,15.0,5.0,15.0,30.0,30.0,60.0,RR,59.68528812552524,
12.0,1.0,resp2,stim/right_resp_img.png,"[-0.5, 0]",right,stim/gold_coin.png,gold,,,,,training,,,gold,deval,,,,,0.0,0.0,0.0,0.0,0.0,1.0,1.0,1.0,,,,,,,,,0.0,training_resp,,83.18664458329295,20.796693182941453,1.0,,right,gold,0.0,236.0,2.0,right,2023_Sep_11_1349,habits_v_MRI,5.0,40.0,1.0,5.0,30.0,15.0,5.0,15.0,30.0,30.0,60.0,RR,59.68528812552524,
12.0,1.0,resp2,stim/right_resp_img.png,"[-0.5, 0]",right,stim/gold_coin.png,gold,,,,,training,,,gold,deval,,,,,0.0,0.0,0.0,0.0,0.0,1.0,1.0,1.0,,,,,,,,,0.0,training_resp,,84.48660701848894,22.096584945868017,1.0,,right,gold,0.0,236.0,2.0,right,2023_Sep_11_1349,habits_v_MRI,5.0,40.0,1.0,5.0,30.0,15.0,5.0,15.0,30.0,30.0,60.0,RR,59.68528812552524,
12.0,1.0,resp2,stim/right_resp_img.png,"[-0.5, 0]",right,stim/gold_coin.png,gold,,,,,training,,,gold,deval,,,,,0.0,0.0,0.0,0.0,0.0,1.0,1.0,1.0,,,,,,,,,0.0,training_resp,,85.71968797460067,23.329912521807277,1.0,,right,gold,0.0,236.0,2.0,right,2023_Sep_11_1349,habits_v_MRI,5.0,40.0,1.0,5.0,30.0,15.0,5.0,15.0,30.0,30.0,60.0,RR,59.68528812552524,
12.0,1.0,resp2,stim/right_resp_img.png,"[-0.5, 0]",right,stim/gold_coin.png,gold,,,,,training,,,gold,deval,,,,,0.0,0.0,0.0,0.0,0.0,1.0,1.0,1.0,,,,,,,,,0.0,training_resp,,86.31969436736108,23.929791939079223,1.0,,right,gold,0.0,236.0,2.0,right,2023_Sep_11_1349,habits_v_MRI,5.0,40.0,1.0,5.0,30.0,15.0,5.0,15.0,30.0,30.0,60.0,RR,59.68528812552524,
12.0,1.0,resp2,stim/right_resp_img.png,"[-0.5, 0]",right,stim/gold_coin.png,gold,,,,,training,,,gold,deval,,,,,0.0,0.0,0.0,0.0,0.0,1.0,1.0,1.0,,,,,,,,,0.0,training_resp,,87.00276120368108,24.61306375430468,1.0,,right,gold,0.0,236.0,2.0,right,2023_Sep_11_1349,habits_v_MRI,5.0,40.0,1.0,5.0,30.0,15.0,5.0,15.0,30.0,30.0,60.0,RR,59.68528812552524,
12.0,1.0,resp2,stim/right_resp_img.png,"[-0.5, 0]",right,stim/gold_coin.png,gold,,,,,training,,,gold,deval,,,,,0.0,0.0,0.0,0.0,0.0,1.0,1.0,1.0,,,,,,,,,0.0,training_resp,,88.63609206397268,26.24634241682179,1.0,,right,gold,0.0,236.0,2.0,right,2023_Sep_11_1349,habits_v_MRI,5.0,40.0,1.0,5.0,30.0,15.0,5.0,15.0,30.0,30.0,60.0,RR,59.68528812552524,
12.0,1.0,resp2,stim/right_resp_img.png,"[-0.5, 0]",right,stim/gold_coin.png,gold,,,,,training,,,gold,deval,,,,,0.0,0.0,0.0,0.0,0.0,1.0,1.0,1.0,,,,,,,,,0.0,training_resp,,90.2695880217252,27.87955363277433,1.0,26.0,right,gold,1.0,236.0,2.0,right,2023_Sep_11_1349,habits_v_MRI,5.0,40.0,1.0,5.0,30.0,15.0,5.0,15.0,30.0,30.0,60.0,RR,59.68528812552524,
12.0,1.0,resp2,stim/right_resp_img.png,"[-0.5, 0]",right,stim/gold_coin.png,gold,,,,,training,,,gold,deval,,,,,0.0,0.0,0.0,0.0,0.0,1.0,1.0,1.0,,,,,,,,,0.0,training_resp,,91.15267937340468,28.76274234210177,1.0,,right,gold,0.0,236.0,2.0,right,2023_Sep_11_1349,habits_v_MRI,5.0,40.0,1.0,5.0,30.0,15.0,5.0,15.0,30.0,30.0,60.0,RR,59.68528812552524,
12.0,1.0,resp2,stim/right_resp_img.png,"[-0.5, 0]",right,stim/gold_coin.png,gold,,,,,training,,,gold,deval,,,,,0.0,0.0,0.0,0.0,0.0,1.0,1.0,1.0,,,,,,,,,0.0,training_resp,,92.00267352314768,29.612721829549628,1.0,,right,gold,0.0,236.0,2.0,right,2023_Sep_11_1349,habits_v_MRI,5.0,40.0,1.0,5.0,30.0,15.0,5.0,15.0,30.0,30.0,60.0,RR,59.68528812552524,
12.0,1.0,resp2,stim/right_resp_img.png,"[-0.5, 0]",right,stim/gold_coin.png,gold,,,,,training,,,gold,deval,,,,,0.0,0.0,0.0,0.0,0.0,1.0,1.0,1.0,,,,,,,,,0.0,ITI_start,16.666666666666668,92.10319852133762,29.71273188788473,,,,,,236.0,2.0,right,2023_Sep_11_1349,habits_v_MRI,5.0,40.0,1.0,5.0,30.0,15.0,5.0,15.0,30.0,30.0,60.0,RR,59.68528812552524,
12.0,0.0,resp1,stim/left_resp_img.png,"[0.5, 0]",left,stim/silver_coin.png,gold,,,,,training,,,silver,val,,,,,0.0,0.0,0.0,0.0,1.0,0.0,2.0,0.0,,,,,,,,,0.0,training_period_start,45.0,108.80553865318508,0.0,2.0,15.0,,,,236.0,2.0,right,2023_Sep_11_1349,habits_v_MRI,5.0,40.0,1.0,5.0,30.0,15.0,5.0,15.0,30.0,30.0,60.0,RR,59.68528812552524,
12.0,0.0,resp1,stim/left_resp_img.png,"[0.5, 0]",left,stim/silver_coin.png,gold,,,,,training,,,silver,val,,,,,0.0,0.0,0.0,0.0,1.0,0.0,2.0,0.0,,,,,,,,,0.0,training_resp,,109.35161154767228,0.5647734807153029,2.0,,left,silver,0.0,236.0,2.0,right,2023_Sep_11_1349,habits_v_MRI,5.0,40.0,1.0,5.0,30.0,15.0,5.0,15.0,30.0,30.0,60.0,RR,59.68528812552524,
12.0,0.0,resp1,stim/left_resp_img.png,"[0.5, 0]",left,stim/silver_coin.png,gold,,,,,training,,,silver,val,,,,,0.0,0.0,0.0,0.0,1.0,0.0,2.0,0.0,,,,,,,,,0.0,training_resp,,109.9181392255432,1.131461564109486,2.0,,left,silver,0.0,236.0,2.0,right,2023_Sep_11_1349,habits_v_MRI,5.0,40.0,1.0,5.0,30.0,15.0,5.0,15.0,30.0,30.0,60.0,RR,59.68528812552524,
12.0,0.0,resp1,stim/left_resp_img.png,"[0.5, 0]",left,stim/silver_coin.png,gold,,,,,training,,,silver,val,,,,,0.0,0.0,0.0,0.0,1.0,0.0,2.0,0.0,,,,,,,,,0.0,training_resp,,110.7014586345831,1.914700623763565,2.0,,left,silver,0.0,236.0,2.0,right,2023_Sep_11_1349,habits_v_MRI,5.0,40.0,1.0,5.0,30.0,15.0,5.0,15.0,30.0,30.0,60.0,RR,59.68528812552524,
12.0,0.0,resp1,stim/left_resp_img.png,"[0.5, 0]",left,stim/silver_coin.png,gold,,,,,training,,,silver,val,,,,,0.0,0.0,0.0,0.0,1.0,0.0,2.0,0.0,,,,,,,,,0.0,training_resp,,111.53455478083195,2.747938994289143,2.0,,left,silver,0.0,236.0,2.0,right,2023_Sep_11_1349,habits_v_MRI,5.0,40.0,1.0,5.0,30.0,15.0,5.0,15.0,30.0,30.0,60.0,RR,59.68528812552524,
12.0,0.0,resp1,stim/left_resp_img.png,"[0.5, 0]",left,stim/silver_coin.png,gold,,,,,training,,,silver,val,,,,,0.0,0.0,0.0,0.0,1.0,0.0,2.0,0.0,,,,,,,,,0.0,training_resp,,112.43449516393412,3.647941838775296,2.0,,left,silver,0.0,236.0,2.0,right,2023_Sep_11_1349,habits_v_MRI,5.0,40.0,1.0,5.0,30.0,15.0,5.0,15.0,30.0,30.0,60.0,RR,59.68528812552524,
12.0,0.0,resp1,stim/left_resp_img.png,"[0.5, 0]",left,stim/silver_coin.png,gold,,,,,training,,,silver,val,,,,,0.0,0.0,0.0,0.0,1.0,0.0,2.0,0.0,,,,,,,,,0.0,training_resp,,113.50112181230725,4.714567607408753,2.0,,left,silver,0.0,236.0,2.0,right,2023_Sep_11_1349,habits_v_MRI,5.0,40.0,1.0,5.0,30.0,15.0,5.0,15.0,30.0,30.0,60.0,RR,59.68528812552524,
12.0,0.0,resp1,stim/left_resp_img.png,"[0.5, 0]",left,stim/silver_coin.png,gold,,,,,training,,,silver,val,,,,,0.0,0.0,0.0,0.0,1.0,0.0,2.0,0.0,,,,,,,,,0.0,training_resp,,114.45160166528512,5.66491960516214,2.0,,left,silver,0.0,236.0,2.0,right,2023_Sep_11_1349,habits_v_MRI,5.0,40.0,1.0,5.0,30.0,15.0,5.0,15.0,30.0,30.0,60.0,RR,59.68528812552524,
12.0,0.0,resp1,stim/left_resp_img.png,"[0.5, 0]",left,stim/silver_coin.png,gold,,,,,training,,,silver,val,,,,,0.0,0.0,0.0,0.0,1.0,0.0,2.0,0.0,,,,,,,,,0.0,training_resp,,115.53441460927752,6.747759527779635,2.0,,left,silver,0.0,236.0,2.0,right,2023_Sep_11_1349,habits_v_MRI,5.0,40.0,1.0,5.0,30.0,15.0,5.0,15.0,30.0,30.0,60.0,RR,59.68528812552524,
12.0,0.0,resp1,stim/left_resp_img.png,"[0.5, 0]",left,stim/silver_coin.png,gold,,,,,training,,,silver,val,,,,,0.0,0.0,0.0,0.0,1.0,0.0,2.0,0.0,,,,,,,,,0.0,training_resp,,116.45107939428271,7.66439293547046,2.0,,left,silver,0.0,236.0,2.0,right,2023_Sep_11_1349,habits_v_MRI,5.0,40.0,1.0,5.0,30.0,15.0,5.0,15.0,30.0,30.0,60.0,RR,59.68528812552524,
12.0,0.0,resp1,stim/left_resp_img.png,"[0.5, 0]",left,stim/silver_coin.png,gold,,,,,training,,,silver,val,,,,,0.0,0.0,0.0,0.0,1.0,0.0,2.0,0.0,,,,,,,,,0.0,training_resp,,117.45105182916632,8.664287073690502,2.0,,left,silver,0.0,236.0,2.0,right,2023_Sep_11_1349,habits_v_MRI,5.0,40.0,1.0,5.0,30.0,15.0,5.0,15.0,30.0,30.0,60.0,RR,59.68528812552524,
12.0,0.0,resp1,stim/left_resp_img.png,"[0.5, 0]",left,stim/silver_coin.png,gold,,,,,training,,,silver,val,,,,,0.0,0.0,0.0,0.0,1.0,0.0,2.0,0.0,,,,,,,,,0.0,training_resp,,118.48446075152424,9.697659633553483,2.0,,left,silver,0.0,236.0,2.0,right,2023_Sep_11_1349,habits_v_MRI,5.0,40.0,1.0,5.0,30.0,15.0,5.0,15.0,30.0,30.0,60.0,RR,59.68528812552524,
12.0,0.0,resp1,stim/left_resp_img.png,"[0.5, 0]",left,stim/silver_coin.png,gold,,,,,training,,,silver,val,,,,,0.0,0.0,0.0,0.0,1.0,0.0,2.0,0.0,,,,,,,,,0.0,training_resp,,119.50138397416777,10.714629189054904,2.0,,left,silver,0.0,236.0,2.0,right,2023_Sep_11_1349,habits_v_MRI,5.0,40.0,1.0,5.0,30.0,15.0,5.0,15.0,30.0,30.0,60.0,RR,59.68528812552524,
12.0,0.0,resp1,stim/left_resp_img.png,"[0.5, 0]",left,stim/silver_coin.png,gold,,,,,training,,,silver,val,,,,,0.0,0.0,0.0,0.0,1.0,0.0,2.0,0.0,,,,,,,,,0.0,training_resp,,120.4506940691299,11.664099689540308,2.0,,left,silver,0.0,236.0,2.0,right,2023_Sep_11_1349,habits_v_MRI,5.0,40.0,1.0,5.0,30.0,15.0,5.0,15.0,30.0,30.0,60.0,RR,59.68528812552524,
12.0,0.0,resp1,stim/left_resp_img.png,"[0.5, 0]",left,stim/silver_coin.png,gold,,,,,training,,,silver,val,,,,,0.0,0.0,0.0,0.0,1.0,0.0,2.0,0.0,,,,,,,,,0.0,training_resp,,121.4839434657042,12.697319761520705,2.0,,left,silver,0.0,236.0,2.0,right,2023_Sep_11_1349,habits_v_MRI,5.0,40.0,1.0,5.0,30.0,15.0,5.0,15.0,30.0,30.0,60.0,RR,59.68528812552524,
12.0,0.0,resp1,stim/left_resp_img.png,"[0.5, 0]",left,stim/silver_coin.png,gold,,,,,training,,,silver,val,,,,,0.0,0.0,0.0,0.0,1.0,0.0,2.0,0.0,,,,,,,,,0.0,training_resp,,122.66736908841813,13.880643334650811,2.0,18.0,left,silver,1.0,236.0,2.0,right,2023_Sep_11_1349,habits_v_MRI,5.0,40.0,1.0,5.0,30.0,15.0,5.0,15.0,30.0,30.0,60.0,RR,59.68528812552524,
12.0,0.0,resp1,stim/left_resp_img.png,"[0.5, 0]",left,stim/silver_coin.png,gold,,,,,training,,,silver,val,,,,,0.0,0.0,0.0,0.0,1.0,0.0,2.0,0.0,,,,,,,,,0.0,training_resp,,123.25044199492912,14.463922979542986,2.0,,left,silver,0.0,236.0,2.0,right,2023_Sep_11_1349,habits_v_MRI,5.0,40.0,1.0,5.0,30.0,15.0,5.0,15.0,30.0,30.0,60.0,RR,59.68528812552524,
12.0,0.0,resp1,stim/left_resp_img.png,"[0.5, 0]",left,stim/silver_coin.png,gold,,,,,training,,,silver,val,,,,,0.0,0.0,0.0,0.0,1.0,0.0,2.0,0.0,,,,,,,,,0.0,training_resp,,124.16738096487823,15.380602720089882,2.0,,left,silver,0.0,236.0,2.0,right,2023_Sep_11_1349,habits_v_MRI,5.0,40.0,1.0,5.0,30.0,15.0,5.0,15.0,30.0,30.0,60.0,RR,59.68528812552524,
12.0,0.0,resp1,stim/left_resp_img.png,"[0.5, 0]",left,stim/silver_coin.png,gold,,,,,training,,,silver,val,,,,,0.0,0.0,0.0,0.0,1.0,0.0,2.0,0.0,,,,,,,,,0.0,training_resp,,125.15106857350838,16.364238717435,2.0,,left,silver,0.0,236.0,2.0,right,2023_Sep_11_1349,habits_v_MRI,5.0,40.0,1.0,5.0,30.0,15.0,5.0,15.0,30.0,30.0,60.0,RR,59.68528812552524,
12.0,0.0,resp1,stim/left_resp_img.png,"[0.5, 0]",left,stim/silver_coin.png,gold,,,,,training,,,silver,val,,,,,0.0,0.0,0.0,0.0,1.0,0.0,2.0,0.0,,,,,,,,,0.0,training_resp,,126.15046184767743,17.36376453876619,2.0,,left,silver,0.0,236.0,2.0,right,2023_Sep_11_1349,habits_v_MRI,5.0,40.0,1.0,5.0,30.0,15.0,5.0,15.0,30.0,30.0,60.0,RR,59.68528812552524,
12.0,0.0,resp1,stim/left_resp_img.png,"[0.5, 0]",left,stim/silver_coin.png,gold,,,,,training,,,silver,val,,,,,0.0,0.0,0.0,0.0,1.0,0.0,2.0,0.0,,,,,,,,,0.0,training_resp,,127.1172335648116,18.330374090901387,2.0,,left,silver,0.0,236.0,2.0,right,2023_Sep_11_1349,habits_v_MRI,5.0,40.0,1.0,5.0,30.0,15.0,5.0,15.0,30.0,30.0,60.0,RR,59.68528812552524,
12.0,0.0,resp1,stim/left_resp_img.png,"[0.5, 0]",left,stim/silver_coin.png,gold,,,,,training,,,silver,val,,,,,0.0,0.0,0.0,0.0,1.0,0.0,2.0,0.0,,,,,,,,,0.0,training_resp,,128.00031729209695,19.21361675747903,2.0,,left,silver,0.0,236.0,2.0,right,2023_Sep_11_1349,habits_v_MRI,5.0,40.0,1.0,5.0,30.0,15.0,5.0,15.0,30.0,30.0,60.0,RR,59.68528812552524,
12.0,0.0,resp1,stim/left_resp_img.png,"[0.5, 0]",left,stim/silver_coin.png,gold,,,,,training,,,silver,val,,,,,0.0,0.0,0.0,0.0,1.0,0.0,2.0,0.0,,,,,,,,,0.0,training_resp,,128.6671300929847,19.880295251732605,2.0,,left,silver,0.0,236.0,2.0,right,2023_Sep_11_1349,habits_v_MRI,5.0,40.0,1.0,5.0,30.0,15.0,5.0,15.0,30.0,30.0,60.0,RR,59.68528812552524,
12.0,0.0,resp1,stim/left_resp_img.png,"[0.5, 0]",left,stim/silver_coin.png,gold,,,,,training,,,silver,val,,,,,0.0,0.0,0.0,0.0,1.0,0.0,2.0,0.0,,,,,,,,,0.0,training_resp,,129.7169165073119,20.930204242857144,2.0,,left,silver,0.0,236.0,2.0,right,2023_Sep_11_1349,habits_v_MRI,5.0,40.0,1.0,5.0,30.0,15.0,5.0,15.0,30.0,30.0,60.0,RR,59.68528812552524,
12.0,0.0,resp1,stim/left_resp_img.png,"[0.5, 0]",left,stim/silver_coin.png,gold,,,,,training,,,silver,val,,,,,0.0,0.0,0.0,0.0,1.0,0.0,2.0,0.0,,,,,,,,,0.0,training_resp,,130.91689938174932,22.130168936047998,2.0,,left,silver,0.0,236.0,2.0,right,2023_Sep_11_1349,habits_v_MRI,5.0,40.0,1.0,5.0,30.0,15.0,5.0,15.0,30.0,30.0,60.0,RR,59.68528812552524,
12.0,0.0,resp1,stim/left_resp_img.png,"[0.5, 0]",left,stim/silver_coin.png,gold,,,,,training,,,silver,val,,,,,0.0,0.0,0.0,0.0,1.0,0.0,2.0,0.0,,,,,,,,,0.0,training_resp,,132.31667774647576,23.53000008504023,2.0,,left,silver,0.0,236.0,2.0,right,2023_Sep_11_1349,habits_v_MRI,5.0,40.0,1.0,5.0,30.0,15.0,5.0,15.0,30.0,30.0,60.0,RR,59.68528812552524,
12.0,0.0,resp1,stim/left_resp_img.png,"[0.5, 0]",left,stim/silver_coin.png,gold,,,,,training,,,silver,val,,,,,0.0,0.0,0.0,0.0,1.0,0.0,2.0,0.0,,,,,,,,,0.0,training_resp,,133.10017193008937,24.313348232180942,2.0,,left,silver,0.0,236.0,2.0,right,2023_Sep_11_1349,habits_v_MRI,5.0,40.0,1.0,5.0,30.0,15.0,5.0,15.0,30.0,30.0,60.0,RR,59.68528812552524,
12.0,0.0,resp1,stim/left_resp_img.png,"[0.5, 0]",left,stim/silver_coin.png,gold,,,,,training,,,silver,val,,,,,0.0,0.0,0.0,0.0,1.0,0.0,2.0,0.0,,,,,,,,,0.0,training_resp,,134.0664958606867,25.27987919440602,2.0,,left,silver,0.0,236.0,2.0,right,2023_Sep_11_1349,habits_v_MRI,5.0,40.0,1.0,5.0,30.0,15.0,5.0,15.0,30.0,30.0,60.0,RR,59.68528812552524,
12.0,0.0,resp1,stim/left_resp_img.png,"[0.5, 0]",left,stim/silver_coin.png,gold,,,,,training,,,silver,val,,,,,0.0,0.0,0.0,0.0,1.0,0.0,2.0,0.0,,,,,,,,,0.0,training_resp,,134.88365526360394,26.09690047848926,2.0,,left,silver,0.0,236.0,2.0,right,2023_Sep_11_1349,habits_v_MRI,5.0,40.0,1.0,5.0,30.0,15.0,5.0,15.0,30.0,30.0,60.0,RR,59.68528812552524,
12.0,0.0,resp1,stim/left_resp_img.png,"[0.5, 0]",left,stim/silver_coin.png,gold,,,,,training,,,silver,val,,,,,0.0,0.0,0.0,0.0,1.0,0.0,2.0,0.0,,,,,,,,,0.0,training_resp,,135.8497299351602,27.063147285407467,2.0,,left,silver,0.0,236.0,2.0,right,2023_Sep_11_1349,habits_v_MRI,5.0,40.0,1.0,5.0,30.0,15.0,5.0,15.0,30.0,30.0,60.0,RR,59.68528812552524,
12.0,0.0,resp1,stim/left_resp_img.png,"[0.5, 0]",left,stim/silver_coin.png,gold,,,,,training,,,silver,val,,,,,0.0,0.0,0.0,0.0,1.0,0.0,2.0,0.0,,,,,,,,,0.0,training_resp,,136.83324658141282,28.046488570593283,2.0,,left,silver,0.0,236.0,2.0,right,2023_Sep_11_1349,habits_v_MRI,5.0,40.0,1.0,5.0,30.0,15.0,5.0,15.0,30.0,30.0,60.0,RR,59.68528812552524,
12.0,0.0,resp1,stim/left_resp_img.png,"[0.5, 0]",left,stim/silver_coin.png,gold,,,,,training,,,silver,val,,,,,0.0,0.0,0.0,0.0,1.0,0.0,2.0,0.0,,,,,,,,,0.0,training_resp,,137.86633674544464,29.07965879076437,2.0,,left,silver,0.0,236.0,2.0,right,2023_Sep_11_1349,habits_v_MRI,5.0,40.0,1.0,5.0,30.0,15.0,5.0,15.0,30.0,30.0,60.0,RR,59.68528812552524,
12.0,0.0,resp1,stim/left_resp_img.png,"[0.5, 0]",left,stim/silver_coin.png,gold,,,,,training,,,silver,val,,,,,0.0,0.0,0.0,0.0,1.0,0.0,2.0,0.0,,,,,,,,,0.0,training_resp,,138.89966355894467,30.112911706288287,2.0,,left,silver,0.0,236.0,2.0,right,2023_Sep_11_1349,habits_v_MRI,5.0,40.0,1.0,5.0,30.0,15.0,5.0,15.0,30.0,30.0,60.0,RR,59.68528812552524,
12.0,0.0,resp1,stim/left_resp_img.png,"[0.5, 0]",left,stim/silver_coin.png,gold,,,,,training,,,silver,val,,,,,0.0,0.0,0.0,0.0,1.0,0.0,2.0,0.0,,,,,,,,,0.0,training_resp,,139.73284855871134,30.946348897556163,2.0,20.0,left,silver,1.0,236.0,2.0,right,2023_Sep_11_1349,habits_v_MRI,5.0,40.0,1.0,5.0,30.0,15.0,5.0,15.0,30.0,30.0,60.0,RR,59.68528812552524,
12.0,0.0,resp1,stim/left_resp_img.png,"[0.5, 0]",left,stim/silver_coin.png,gold,,,,,training,,,silver,val,,,,,0.0,0.0,0.0,0.0,1.0,0.0,2.0,0.0,,,,,,,,,0.0,training_resp,,140.88314794814323,32.09616267172896,2.0,,left,silver,0.0,236.0,2.0,right,2023_Sep_11_1349,habits_v_MRI,5.0,40.0,1.0,5.0,30.0,15.0,5.0,15.0,30.0,30.0,60.0,RR,59.68528812552524,
12.0,0.0,resp1,stim/left_resp_img.png,"[0.5, 0]",left,stim/silver_coin.png,gold,,,,,training,,,silver,val,,,,,0.0,0.0,0.0,0.0,1.0,0.0,2.0,0.0,,,,,,,,,0.0,training_resp,,142.0661175734367,33.279571579425465,2.0,,left,silver,0.0,236.0,2.0,right,2023_Sep_11_1349,habits_v_MRI,5.0,40.0,1.0,5.0,30.0,15.0,5.0,15.0,30.0,30.0,60.0,RR,59.68528812552524,
12.0,0.0,resp1,stim/left_resp_img.png,"[0.5, 0]",left,stim/silver_coin.png,gold,,,,,training,,,silver,val,,,,,0.0,0.0,0.0,0.0,1.0,0.0,2.0,0.0,,,,,,,,,0.0,training_resp,,143.83259117675698,35.045973630738445,2.0,,left,silver,0.0,236.0,2.0,right,2023_Sep_11_1349,habits_v_MRI,5.0,40.0,1.0,5.0,30.0,15.0,5.0,15.0,30.0,30.0,60.0,RR,59.68528812552524,
12.0,0.0,resp1,stim/left_resp_img.png,"[0.5, 0]",left,stim/silver_coin.png,gold,,,,,training,,,silver,val,,,,,0.0,0.0,0.0,0.0,1.0,0.0,2.0,0.0,,,,,,,,,0.0,training_resp,,144.8992239832951,36.112579165404895,2.0,,left,silver,0.0,236.0,2.0,right,2023_Sep_11_1349,habits_v_MRI,5.0,40.0,1.0,5.0,30.0,15.0,5.0,15.0,30.0,30.0,60.0,RR,59.68528812552524,
12.0,0.0,resp1,stim/left_resp_img.png,"[0.5, 0]",left,stim/silver_coin.png,gold,,,,,training,,,silver,val,,,,,0.0,0.0,0.0,0.0,1.0,0.0,2.0,0.0,,,,,,,,,0.0,training_resp,,145.86610566765194,37.07917874717714,2.0,,left,silver,0.0,236.0,2.0,right,2023_Sep_11_1349,habits_v_MRI,5.0,40.0,1.0,5.0,30.0,15.0,5.0,15.0,30.0,30.0,60.0,RR,59.68528812552524,
12.0,0.0,resp1,stim/left_resp_img.png,"[0.5, 0]",left,stim/silver_coin.png,gold,,,,,training,,,silver,val,,,,,0.0,0.0,0.0,0.0,1.0,0.0,2.0,0.0,,,,,,,,,0.0,training_resp,,146.86578485660357,38.07910514244759,2.0,,left,silver,0.0,236.0,2.0,right,2023_Sep_11_1349,habits_v_MRI,5.0,40.0,1.0,5.0,30.0,15.0,5.0,15.0,30.0,30.0,60.0,RR,59.68528812552524,
12.0,0.0,resp1,stim/left_resp_img.png,"[0.5, 0]",left,stim/silver_coin.png,gold,,,,,training,,,silver,val,,,,,0.0,0.0,0.0,0.0,1.0,0.0,2.0,0.0,,,,,,,,,0.0,training_resp,,147.915662177169,39.129053428529005,2.0,,left,silver,0.0,236.0,2.0,right,2023_Sep_11_1349,habits_v_MRI,5.0,40.0,1.0,5.0,30.0,15.0,5.0,15.0,30.0,30.0,60.0,RR,59.68528812552524,
12.0,0.0,resp1,stim/left_resp_img.png,"[0.5, 0]",left,stim/silver_coin.png,gold,,,,,training,,,silver,val,,,,,0.0,0.0,0.0,0.0,1.0,0.0,2.0,0.0,,,,,,,,,0.0,training_resp,,148.6821469238348,39.89556134162376,2.0,,left,silver,0.0,236.0,2.0,right,2023_Sep_11_1349,habits_v_MRI,5.0,40.0,1.0,5.0,30.0,15.0,5.0,15.0,30.0,30.0,60.0,RR,59.68528812552524,
12.0,0.0,resp1,stim/left_resp_img.png,"[0.5, 0]",left,stim/silver_coin.png,gold,,,,,training,,,silver,val,,,,,0.0,0.0,0.0,0.0,1.0,0.0,2.0,0.0,,,,,,,,,0.0,training_resp,,149.5990213796813,40.812274512207296,2.0,,left,silver,0.0,236.0,2.0,right,2023_Sep_11_1349,habits_v_MRI,5.0,40.0,1.0,5.0,30.0,15.0,5.0,15.0,30.0,30.0,60.0,RR,59.68528812552524,
12.0,0.0,resp1,stim/left_resp_img.png,"[0.5, 0]",left,stim/silver_coin.png,gold,,,,,training,,,silver,val,,,,,0.0,0.0,0.0,0.0,1.0,0.0,2.0,0.0,,,,,,,,,0.0,training_resp,,150.39897193841716,41.61223093586159,2.0,,left,silver,0.0,236.0,2.0,right,2023_Sep_11_1349,habits_v_MRI,5.0,40.0,1.0,5.0,30.0,15.0,5.0,15.0,30.0,30.0,60.0,RR,59.68528812552524,
12.0,0.0,resp1,stim/left_resp_img.png,"[0.5, 0]",left,stim/silver_coin.png,gold,,,,,training,,,silver,val,,,,,0.0,0.0,0.0,0.0,1.0,0.0,2.0,0.0,,,,,,,,,0.0,training_resp,,151.29894369883368,42.51219008670341,2.0,,left,silver,0.0,236.0,2.0,right,2023_Sep_11_1349,habits_v_MRI,5.0,40.0,1.0,5.0,30.0,15.0,5.0,15.0,30.0,30.0,60.0,RR,59.68528812552524,
12.0,0.0,resp1,stim/left_resp_img.png,"[0.5, 0]",left,stim/silver_coin.png,gold,,,,,training,,,silver,val,,,,,0.0,0.0,0.0,0.0,1.0,0.0,2.0,0.0,,,,,,,,,0.0,training_resp,,152.49867614124742,43.71208293464042,2.0,,left,silver,0.0,236.0,2.0,right,2023_Sep_11_1349,habits_v_MRI,5.0,40.0,1.0,5.0,30.0,15.0,5.0,15.0,30.0,30.0,60.0,RR,59.68528812552524,
12.0,0.0,resp1,stim/left_resp_img.png,"[0.5, 0]",left,stim/silver_coin.png,gold,,,,,training,,,silver,val,,,,,0.0,0.0,0.0,0.0,1.0,0.0,2.0,0.0,,,,,,,,,0.0,training_resp,,153.415223334634,44.6286776338693,2.0,,left,silver,0.0,236.0,2.0,right,2023_Sep_11_1349,habits_v_MRI,5.0,40.0,1.0,5.0,30.0,15.0,5.0,15.0,30.0,30.0,60.0,RR,59.68528812552524,
12.0,0.0,resp1,stim/left_resp_img.png,"[0.5, 0]",left,stim/silver_coin.png,gold,,,,,training,,,silver,val,,,,,0.0,0.0,0.0,0.0,1.0,0.0,2.0,0.0,,,,,,,,,0.0,ITI_start,23.333333333333336,153.53293166460753,44.7453625355447,,,,,,236.0,2.0,right,2023_Sep_11_1349,habits_v_MRI,5.0,40.0,1.0,5.0,30.0,15.0,5.0,15.0,30.0,30.0,60.0,RR,59.68528812552524,
12.0,1.0,resp2,stim/right_resp_img.png,"[-0.5, 0]",right,stim/gold_coin.png,gold,,,,,training,,,gold,deval,,,,,0.0,0.0,0.0,0.0,1.0,1.0,3.0,1.0,,,,,,,,,0.0,training_period_start,52.5,176.90189281450694,0.0,3.0,8.0,,,,236.0,2.0,right,2023_Sep_11_1349,habits_v_MRI,5.0,40.0,1.0,5.0,30.0,15.0,5.0,15.0,30.0,30.0,60.0,RR,59.68528812552524,
12.0,1.0,resp2,stim/right_resp_img.png,"[-0.5, 0]",right,stim/gold_coin.png,gold,,,,,training,,,gold,deval,,,,,0.0,0.0,0.0,0.0,1.0,1.0,3.0,1.0,,,,,,,,,0.0,training_resp,,177.6304708327334,0.7474410627000907,3.0,,right,gold,0.0,236.0,2.0,right,2023_Sep_11_1349,habits_v_MRI,5.0,40.0,1.0,5.0,30.0,15.0,5.0,15.0,30.0,30.0,60.0,RR,59.68528812552524,
12.0,1.0,resp2,stim/right_resp_img.png,"[-0.5, 0]",right,stim/gold_coin.png,gold,,,,,training,,,gold,deval,,,,,0.0,0.0,0.0,0.0,1.0,1.0,3.0,1.0,,,,,,,,,0.0,training_resp,,177.93038312287536,1.0474521767209808,3.0,,left,,,236.0,2.0,right,2023_Sep_11_1349,habits_v_MRI,5.0,40.0,1.0,5.0,30.0,15.0,5.0,15.0,30.0,30.0,60.0,RR,59.68528812552524,
12.0,1.0,resp2,stim/right_resp_img.png,"[-0.5, 0]",right,stim/gold_coin.png,gold,,,,,training,,,gold,deval,,,,,0.0,0.0,0.0,0.0,1.0,1.0,3.0,1.0,,,,,,,,,0.0,training_resp,,178.48033947321892,1.5973633671910648,3.0,,right,gold,0.0,236.0,2.0,right,2023_Sep_11_1349,habits_v_MRI,5.0,40.0,1.0,5.0,30.0,15.0,5.0,15.0,30.0,30.0,60.0,RR,59.68528812552524,
12.0,1.0,resp2,stim/right_resp_img.png,"[-0.5, 0]",right,stim/gold_coin.png,gold,,,,,training,,,gold,deval,,,,,0.0,0.0,0.0,0.0,1.0,1.0,3.0,1.0,,,,,,,,,0.0,training_resp,,179.43040584943446,2.5473364912013494,3.0,,right,gold,0.0,236.0,2.0,right,2023_Sep_11_1349,habits_v_MRI,5.0,40.0,1.0,5.0,30.0,15.0,5.0,15.0,30.0,30.0,60.0,RR,59.68528812552524,
12.0,1.0,resp2,stim/right_resp_img.png,"[-0.5, 0]",right,stim/gold_coin.png,gold,,,,,training,,,gold,deval,,,,,0.0,0.0,0.0,0.0,1.0,1.0,3.0,1.0,,,,,,,,,0.0,training_resp,,180.3969329994634,3.5138982442495035,3.0,,right,gold,0.0,236.0,2.0,right,2023_Sep_11_1349,habits_v_MRI,5.0,40.0,1.0,5.0,30.0,15.0,5.0,15.0,30.0,30.0,60.0,RR,59.68528812552524,
12.0,1.0,resp2,stim/right_resp_img.png,"[-0.5, 0]",right,stim/gold_coin.png,gold,,,,,training,,,gold,deval,,,,,0.0,0.0,0.0,0.0,1.0,1.0,3.0,1.0,,,,,,,,,0.0,training_resp,,181.3468946868816,4.463875180457762,3.0,,right,gold,0.0,236.0,2.0,right,2023_Sep_11_1349,habits_v_MRI,5.0,40.0,1.0,5.0,30.0,15.0,5.0,15.0,30.0,30.0,60.0,RR,59.68528812552524,
12.0,1.0,resp2,stim/right_resp_img.png,"[-0.5, 0]",right,stim/gold_coin.png,gold,,,,,training,,,gold,deval,,,,,0.0,0.0,0.0,0.0,1.0,1.0,3.0,1.0,,,,,,,,,0.0,training_resp,,183.13008418797472,6.2470813965665,3.0,,right,gold,0.0,236.0,2.0,right,2023_Sep_11_1349,habits_v_MRI,5.0,40.0,1.0,5.0,30.0,15.0,5.0,15.0,30.0,30.0,60.0,RR,59.68528812552524,
12.0,1.0,resp2,stim/right_resp_img.png,"[-0.5, 0]",right,stim/gold_coin.png,gold,,,,,training,,,gold,deval,,,,,0.0,0.0,0.0,0.0,1.0,1.0,3.0,1.0,,,,,,,,,0.0,training_resp,,183.58004514227832,6.69705671992233,3.0,,left,,,236.0,2.0,right,2023_Sep_11_1349,habits_v_MRI,5.0,40.0,1.0,5.0,30.0,15.0,5.0,15.0,30.0,30.0,60.0,RR,59.68528812552524,
12.0,1.0,resp2,stim/right_resp_img.png,"[-0.5, 0]",right,stim/gold_coin.png,gold,,,,,training,,,gold,deval,,,,,0.0,0.0,0.0,0.0,1.0,1.0,3.0,1.0,,,,,,,,,0.0,training_resp,,184.19664544250367,7.3137473398928705,3.0,,right,gold,0.0,236.0,2.0,right,2023_Sep_11_1349,habits_v_MRI,5.0,40.0,1.0,5.0,30.0,15.0,5.0,15.0,30.0,30.0,60.0,RR,59.68528812552524,
12.0,1.0,resp2,stim/right_resp_img.png,"[-0.5, 0]",right,stim/gold_coin.png,gold,,,,,training,,,gold,deval,,,,,0.0,0.0,0.0,0.0,1.0,1.0,3.0,1.0,,,,,,,,,0.0,training_resp,,184.97990414963533,8.09693977344432,3.0,18.0,right,gold,1.0,236.0,2.0,right,2023_Sep_11_1349,habits_v_MRI,5.0,40.0,1.0,5.0,30.0,15.0,5.0,15.0,30.0,30.0,60.0,RR,59.68528812552524,
12.0,1.0,resp2,stim/right_resp_img.png,"[-0.5, 0]",right,stim/gold_coin.png,gold,,,,,training,,,gold,deval,,,,,0.0,0.0,0.0,0.0,1.0,1.0,3.0,1.0,,,,,,,,,0.0,training_resp,,185.7298471866125,8.846911841770634,3.0,,right,gold,0.0,236.0,2.0,right,2023_Sep_11_1349,habits_v_MRI,5.0,40.0,1.0,5.0,30.0,15.0,5.0,15.0,30.0,30.0,60.0,RR,59.68528812552524,
12.0,1.0,resp2,stim/right_resp_img.png,"[-0.5, 0]",right,stim/gold_coin.png,gold,,,,,training,,,gold,deval,,,,,0.0,0.0,0.0,0.0,1.0,1.0,3.0,1.0,,,,,,,,,0.0,training_resp,,186.6463304523877,9.763522376277251,3.0,,right,gold,0.0,236.0,2.0,right,2023_Sep_11_1349,habits_v_MRI,5.0,40.0,1.0,5.0,30.0,15.0,5.0,15.0,30.0,30.0,60.0,RR,59.68528812552524,
12.0,1.0,resp2,stim/right_resp_img.png,"[-0.5, 0]",right,stim/gold_coin.png,gold,,,,,training,,,gold,deval,,,,,0.0,0.0,0.0,0.0,1.0,1.0,3.0,1.0,,,,,,,,,0.0,training_resp,,187.49677385489667,10.613642915017408,3.0,,right,gold,0.0,236.0,2.0,right,2023_Sep_11_1349,habits_v_MRI,5.0,40.0,1.0,5.0,30.0,15.0,5.0,15.0,30.0,30.0,60.0,RR,59.68528812552524,
12.0,1.0,resp2,stim/right_resp_img.png,"[-0.5, 0]",right,stim/gold_coin.png,gold,,,,,training,,,gold,deval,,,,,0.0,0.0,0.0,0.0,1.0,1.0,3.0,1.0,,,,,,,,,0.0,training_resp,,188.3798270846055,11.496801713261448,3.0,,right,gold,0.0,236.0,2.0,right,2023_Sep_11_1349,habits_v_MRI,5.0,40.0,1.0,5.0,30.0,15.0,5.0,15.0,30.0,30.0,60.0,RR,59.68528812552524,
12.0,1.0,resp2,stim/right_resp_img.png,"[-0.5, 0]",right,stim/gold_coin.png,gold,,,,,training,,,gold,deval,,,,,0.0,0.0,0.0,0.0,1.0,1.0,3.0,1.0,,,,,,,,,0.0,training_resp,,189.19640996602172,12.31338312844855,3.0,,right,gold,0.0,236.0,2.0,right,2023_Sep_11_1349,habits_v_MRI,5.0,40.0,1.0,5.0,30.0,15.0,5.0,15.0,30.0,30.0,60.0,RR,59.68528812552524,
12.0,1.0,resp2,stim/right_resp_img.png,"[-0.5, 0]",right,stim/gold_coin.png,gold,,,,,training,,,gold,deval,,,,,0.0,0.0,0.0,0.0,1.0,1.0,3.0,1.0,,,,,,,,,0.0,training_resp,,189.5629717777192,12.680029394972737,3.0,,left,,,236.0,2.0,right,2023_Sep_11_1349,habits_v_MRI,5.0,40.0,1.0,5.0,30.0,15.0,5.0,15.0,30.0,30.0,60.0,RR,59.68528812552524,
12.0,1.0,resp2,stim/right_resp_img.png,"[-0.5, 0]",right,stim/gold_coin.png,gold,,,,,training,,,gold,deval,,,,,0.0,0.0,0.0,0.0,1.0,1.0,3.0,1.0,,,,,,,,,0.0,training_resp,,190.04676715422647,13.16368401343425,3.0,,right,gold,0.0,236.0,2.0,right,2023_Sep_11_1349,habits_v_MRI,5.0,40.0,1.0,5.0,30.0,15.0,5.0,15.0,30.0,30.0,60.0,RR,59.68528812552524,
12.0,1.0,resp2,stim/right_resp_img.png,"[-0.5, 0]",right,stim/gold_coin.png,gold,,,,,training,,,gold,deval,,,,,0.0,0.0,0.0,0.0,1.0,1.0,3.0,1.0,,,,,,,,,0.0,training_resp,,190.39660368428304,13.513317030814504,3.0,,left,,,236.0,2.0,right,2023_Sep_11_1349,habits_v_MRI,5.0,40.0,1.0,5.0,30.0,15.0,5.0,15.0,30.0,30.0,60.0,RR,59.68528812552524,
12.0,1.0,resp2,stim/right_resp_img.png,"[-0.5, 0]",right,stim/gold_coin.png,gold,,,,,training,,,gold,deval,,,,,0.0,0.0,0.0,0.0,1.0,1.0,3.0,1.0,,,,,,,,,0.0,training_resp,,190.87979028224072,13.996627671800525,3.0,,right,gold,0.0,236.0,2.0,right,2023_Sep_11_1349,habits_v_MRI,5.0,40.0,1.0,5.0,30.0,15.0,5.0,15.0,30.0,30.0,60.0,RR,59.68528812552524,
12.0,1.0,resp2,stim/right_resp_img.png,"[-0.5, 0]",right,stim/gold_coin.png,gold,,,,,training,,,gold,deval,,,,,0.0,0.0,0.0,0.0,1.0,1.0,3.0,1.0,,,,,,,,,0.0,training_resp,,191.74620825680904,14.86322716560062,3.0,,right,gold,0.0,236.0,2.0,right,2023_Sep_11_1349,habits_v_MRI,5.0,40.0,1.0,5.0,30.0,15.0,5.0,15.0,30.0,30.0,60.0,RR,59.68528812552524,
12.0,1.0,resp2,stim/right_resp_img.png,"[-0.5, 0]",right,stim/gold_coin.png,gold,,,,,training,,,gold,deval,,,,,0.0,0.0,0.0,0.0,1.0,1.0,3.0,1.0,,,,,,,,,0.0,training_resp,,192.57977125057917,15.696578729055544,3.0,,right,gold,0.0,236.0,2.0,right,2023_Sep_11_1349,habits_v_MRI,5.0,40.0,1.0,5.0,30.0,15.0,5.0,15.0,30.0,30.0,60.0,RR,59.68528812552524,
12.0,1.0,resp2,stim/right_resp_img.png,"[-0.5, 0]",right,stim/gold_coin.png,gold,,,,,training,,,gold,deval,,,,,0.0,0.0,0.0,0.0,1.0,1.0,3.0,1.0,,,,,,,,,0.0,training_resp,,193.41278088928084,16.52984906338861,3.0,,right,gold,0.0,236.0,2.0,right,2023_Sep_11_1349,habits_v_MRI,5.0,40.0,1.0,5.0,30.0,15.0,5.0,15.0,30.0,30.0,60.0,RR,59.68528812552524,
12.0,1.0,resp2,stim/right_resp_img.png,"[-0.5, 0]",right,stim/gold_coin.png,gold,,,,,training,,,gold,deval,,,,,0.0,0.0,0.0,0.0,1.0,1.0,3.0,1.0,,,,,,,,,0.0,training_resp,,195.11281170942675,18.22972651591408,3.0,,right,gold,0.0,236.0,2.0,right,2023_Sep_11_1349,habits_v_MRI,5.0,40.0,1.0,5.0,30.0,15.0,5.0,15.0,30.0,30.0,60.0,RR,59.68528812552524,
12.0,1.0,resp2,stim/right_resp_img.png,"[-0.5, 0]",right,stim/gold_coin.png,gold,,,,,training,,,gold,deval,,,,,0.0,0.0,0.0,0.0,1.0,1.0,3.0,1.0,,,,,,,,,0.0,training_resp,,196.0127875752878,19.129637574422304,3.0,,right,gold,0.0,236.0,2.0,right,2023_Sep_11_1349,habits_v_MRI,5.0,40.0,1.0,5.0,30.0,15.0,5.0,15.0,30.0,30.0,60.0,RR,59.68528812552524,
12.0,1.0,resp2,stim/right_resp_img.png,"[-0.5, 0]",right,stim/gold_coin.png,gold,,,,,training,,,gold,deval,,,,,0.0,0.0,0.0,0.0,1.0,1.0,3.0,1.0,,,,,,,,,0.0,training_resp,,196.89579740459703,20.012859713786384,3.0,,right,gold,0.0,236.0,2.0,right,2023_Sep_11_1349,habits_v_MRI,5.0,40.0,1.0,5.0,30.0,15.0,5.0,15.0,30.0,30.0,60.0,RR,59.68528812552524,
12.0,1.0,resp2,stim/right_resp_img.png,"[-0.5, 0]",right,stim/gold_coin.png,gold,,,,,training,,,gold,deval,,,,,0.0,0.0,0.0,0.0,1.0,1.0,3.0,1.0,,,,,,,,,0.0,training_resp,,197.2292954443947,20.34624104170325,3.0,,left,,,236.0,2.0,right,2023_Sep_11_1349,habits_v_MRI,5.0,40.0,1.0,5.0,30.0,15.0,5.0,15.0,30.0,30.0,60.0,RR,59.68528812552524,
12.0,1.0,resp2,stim/right_resp_img.png,"[-0.5, 0]",right,stim/gold_coin.png,gold,,,,,training,,,gold,deval,,,,,0.0,0.0,0.0,0.0,1.0,1.0,3.0,1.0,,,,,,,,,0.0,training_resp,,197.74582029244263,20.86284037421683,3.0,,right,gold,0.0,236.0,2.0,right,2023_Sep_11_1349,habits_v_MRI,5.0,40.0,1.0,5.0,30.0,15.0,5.0,15.0,30.0,30.0,60.0,RR,59.68528812552524,
12.0,1.0,resp2,stim/right_resp_img.png,"[-0.5, 0]",right,stim/gold_coin.png,gold,,,,,training,,,gold,deval,,,,,0.0,0.0,0.0,0.0,1.0,1.0,3.0,1.0,,,,,,,,,0.0,training_resp,,198.71262661259607,21.829532621704857,3.0,,right,gold,0.0,236.0,2.0,right,2023_Sep_11_1349,habits_v_MRI,5.0,40.0,1.0,5.0,30.0,15.0,5.0,15.0,30.0,30.0,60.0,RR,59.68528812552524,
12.0,1.0,resp2,stim/right_resp_img.png,"[-0.5, 0]",right,stim/gold_coin.png,gold,,,,,training,,,gold,deval,,,,,0.0,0.0,0.0,0.0,1.0,1.0,3.0,1.0,,,,,,,,,0.0,training_resp,,199.5957414239492,22.71273775280497,3.0,,right,gold,0.0,236.0,2.0,right,2023_Sep_11_1349,habits_v_MRI,5.0,40.0,1.0,5.0,30.0,15.0,5.0,15.0,30.0,30.0,60.0,RR,59.68528812552524,
12.0,1.0,resp2,stim/right_resp_img.png,"[-0.5, 0]",right,stim/gold_coin.png,gold,,,,,training,,,gold,deval,,,,,0.0,0.0,0.0,0.0,1.0,1.0,3.0,1.0,,,,,,,,,0.0,training_resp,,200.44572091139707,23.56262574752145,3.0,,right,gold,0.0,236.0,2.0,right,2023_Sep_11_1349,habits_v_MRI,5.0,40.0,1.0,5.0,30.0,15.0,5.0,15.0,30.0,30.0,60.0,RR,59.68528812552524,
12.0,1.0,resp2,stim/right_resp_img.png,"[-0.5, 0]",right,stim/gold_coin.png,gold,,,,,training,,,gold,deval,,,,,0.0,0.0,0.0,0.0,1.0,1.0,3.0,1.0,,,,,,,,,0.0,training_resp,,201.36250827320143,24.4792919987558,3.0,17.0,right,gold,1.0,236.0,2.0,right,2023_Sep_11_1349,habits_v_MRI,5.0,40.0,1.0,5.0,30.0,15.0,5.0,15.0,30.0,30.0,60.0,RR,59.68528812552524,
12.0,1.0,resp2,stim/right_resp_img.png,"[-0.5, 0]",right,stim/gold_coin.png,gold,,,,,training,,,gold,deval,,,,,0.0,0.0,0.0,0.0,1.0,1.0,3.0,1.0,,,,,,,,,0.0,training_resp,,202.1956158560424,25.31258051433724,3.0,,right,gold,0.0,236.0,2.0,right,2023_Sep_11_1349,habits_v_MRI,5.0,40.0,1.0,5.0,30.0,15.0,5.0,15.0,30.0,30.0,60.0,RR,59.68528812552524,
12.0,1.0,resp2,stim/right_resp_img.png,"[-0.5, 0]",right,stim/gold_coin.png,gold,,,,,training,,,gold,deval,,,,,0.0,0.0,0.0,0.0,1.0,1.0,3.0,1.0,,,,,,,,,0.0,training_resp,,203.2621521846668,26.37919191392029,3.0,,right,gold,0.0,236.0,2.0,right,2023_Sep_11_1349,habits_v_MRI,5.0,40.0,1.0,5.0,30.0,15.0,5.0,15.0,30.0,30.0,60.0,RR,59.68528812552524,
12.0,1.0,resp2,stim/right_resp_img.png,"[-0.5, 0]",right,stim/gold_coin.png,gold,,,,,training,,,gold,deval,,,,,0.0,0.0,0.0,0.0,1.0,1.0,3.0,1.0,,,,,,,,,0.0,training_resp,,204.17869058067663,27.295726204485614,3.0,,right,gold,0.0,236.0,2.0,right,2023_Sep_11_1349,habits_v_MRI,5.0,40.0,1.0,5.0,30.0,15.0,5.0,15.0,30.0,30.0,60.0,RR,59.68528812552524,
12.0,1.0,resp2,stim/right_resp_img.png,"[-0.5, 0]",right,stim/gold_coin.png,gold,,,,,training,,,gold,deval,,,,,0.0,0.0,0.0,0.0,1.0,1.0,3.0,1.0,,,,,,,,,0.0,training_resp,,205.06220625921745,28.17907707881386,3.0,,right,gold,0.0,236.0,2.0,right,2023_Sep_11_1349,habits_v_MRI,5.0,40.0,1.0,5.0,30.0,15.0,5.0,15.0,30.0,30.0,60.0,RR,59.68528812552524,
12.0,1.0,resp2,stim/right_resp_img.png,"[-0.5, 0]",right,stim/gold_coin.png,gold,,,,,training,,,gold,deval,,,,,0.0,0.0,0.0,0.0,1.0,1.0,3.0,1.0,,,,,,,,,0.0,training_resp,,205.9955467673008,29.112362749909156,3.0,,right,gold,0.0,236.0,2.0,right,2023_Sep_11_1349,habits_v_MRI,5.0,40.0,1.0,5.0,30.0,15.0,5.0,15.0,30.0,30.0,60.0,RR,59.68528812552524,
12.0,1.0,resp2,stim/right_resp_img.png,"[-0.5, 0]",right,stim/gold_coin.png,gold,,,,,training,,,gold,deval,,,,,0.0,0.0,0.0,0.0,1.0,1.0,3.0,1.0,,,,,,,,,0.0,training_resp,,206.9455357265924,30.062395109596764,3.0,,right,gold,0.0,236.0,2.0,right,2023_Sep_11_1349,habits_v_MRI,5.0,40.0,1.0,5.0,30.0,15.0,5.0,15.0,30.0,30.0,60.0,RR,59.68528812552524,
12.0,1.0,resp2,stim/right_resp_img.png,"[-0.5, 0]",right,stim/gold_coin.png,gold,,,,,training,,,gold,deval,,,,,0.0,0.0,0.0,0.0,1.0,1.0,3.0,1.0,,,,,,,,,0.0,training_resp,,207.8286622677824,30.94558235269505,3.0,,right,gold,0.0,236.0,2.0,right,2023_Sep_11_1349,habits_v_MRI,5.0,40.0,1.0,5.0,30.0,15.0,5.0,15.0,30.0,30.0,60.0,RR,59.68528812552524,
12.0,1.0,resp2,stim/right_resp_img.png,"[-0.5, 0]",right,stim/gold_coin.png,gold,,,,,training,,,gold,deval,,,,,0.0,0.0,0.0,0.0,1.0,1.0,3.0,1.0,,,,,,,,,0.0,training_resp,,208.6786279726712,31.79557298348845,3.0,,right,gold,0.0,236.0,2.0,right,2023_Sep_11_1349,habits_v_MRI,5.0,40.0,1.0,5.0,30.0,15.0,5.0,15.0,30.0,30.0,60.0,RR,59.68528812552524,
12.0,1.0,resp2,stim/right_resp_img.png,"[-0.5, 0]",right,stim/gold_coin.png,gold,,,,,training,,,gold,deval,,,,,0.0,0.0,0.0,0.0,1.0,1.0,3.0,1.0,,,,,,,,,0.0,training_resp,,210.2617401741354,33.37872594613691,3.0,,right,gold,0.0,236.0,2.0,right,2023_Sep_11_1349,habits_v_MRI,5.0,40.0,1.0,5.0,30.0,15.0,5.0,15.0,30.0,30.0,60.0,RR,59.68528812552524,
12.0,1.0,resp2,stim/right_resp_img.png,"[-0.5, 0]",right,stim/gold_coin.png,gold,,,,,training,,,gold,deval,,,,,0.0,0.0,0.0,0.0,1.0,1.0,3.0,1.0,,,,,,,,,0.0,training_resp,,210.67852973528352,33.79540671304494,3.0,,left,,,236.0,2.0,right,2023_Sep_11_1349,habits_v_MRI,5.0,40.0,1.0,5.0,30.0,15.0,5.0,15.0,30.0,30.0,60.0,RR,59.68528812552524,
12.0,1.0,resp2,stim/right_resp_img.png,"[-0.5, 0]",right,stim/gold_coin.png,gold,,,,,training,,,gold,deval,,,,,0.0,0.0,0.0,0.0,1.0,1.0,3.0,1.0,,,,,,,,,0.0,training_resp,,211.12893554366565,34.245777038668166,3.0,,right,gold,0.0,236.0,2.0,right,2023_Sep_11_1349,habits_v_MRI,5.0,40.0,1.0,5.0,30.0,15.0,5.0,15.0,30.0,30.0,60.0,RR,59.68528812552524,
12.0,1.0,resp2,stim/right_resp_img.png,"[-0.5, 0]",right,stim/gold_coin.png,gold,,,,,training,,,gold,deval,,,,,0.0,0.0,0.0,0.0,1.0,1.0,3.0,1.0,,,,,,,,,0.0,training_resp,,211.9285913902404,35.04538420641984,3.0,,right,gold,0.0,236.0,2.0,right,2023_Sep_11_1349,habits_v_MRI,5.0,40.0,1.0,5.0,30.0,15.0,5.0,15.0,30.0,30.0,60.0,RR,59.68528812552524,
12.0,1.0,resp2,stim/right_resp_img.png,"[-0.5, 0]",right,stim/gold_coin.png,gold,,,,,training,,,gold,deval,,,,,0.0,0.0,0.0,0.0,1.0,1.0,3.0,1.0,,,,,,,,,0.0,training_resp,,212.8286282512545,35.94528089587948,3.0,,right,gold,0.0,236.0,2.0,right,2023_Sep_11_1349,habits_v_MRI,5.0,40.0,1.0,5.0,30.0,15.0,5.0,15.0,30.0,30.0,60.0,RR,59.68528812552524,
12.0,1.0,resp2,stim/right_resp_img.png,"[-0.5, 0]",right,stim/gold_coin.png,gold,,,,,training,,,gold,deval,,,,,0.0,0.0,0.0,0.0,1.0,1.0,3.0,1.0,,,,,,,,,0.0,training_resp,,213.7448080074901,36.86183102172436,3.0,,right,gold,0.0,236.0,2.0,right,2023_Sep_11_1349,habits_v_MRI,5.0,40.0,1.0,5.0,30.0,15.0,5.0,15.0,30.0,30.0,60.0,RR,59.68528812552524,
12.0,1.0,resp2,stim/right_resp_img.png,"[-0.5, 0]",right,stim/gold_coin.png,gold,,,,,training,,,gold,deval,,,,,0.0,0.0,0.0,0.0,1.0,1.0,3.0,1.0,,,,,,,,,0.0,training_resp,,214.5788451799308,37.695597234926026,3.0,,right,gold,0.0,236.0,2.0,right,2023_Sep_11_1349,habits_v_MRI,5.0,40.0,1.0,5.0,30.0,15.0,5.0,15.0,30.0,30.0,60.0,RR,59.68528812552524,
12.0,1.0,resp2,stim/right_resp_img.png,"[-0.5, 0]",right,stim/gold_coin.png,gold,,,,,training,,,gold,deval,,,,,0.0,0.0,0.0,0.0,1.0,1.0,3.0,1.0,,,,,,,,,0.0,training_resp,,215.37808285781105,38.49509384896192,3.0,,right,gold,0.0,236.0,2.0,right,2023_Sep_11_1349,habits_v_MRI,5.0,40.0,1.0,5.0,30.0,15.0,5.0,15.0,30.0,30.0,60.0,RR,59.68528812552524,
12.0,1.0,resp2,stim/right_resp_img.png,"[-0.5, 0]",right,stim/gold_coin.png,gold,,,,,training,,,gold,deval,,,,,0.0,0.0,0.0,0.0,1.0,1.0,3.0,1.0,,,,,,,,,0.0,training_resp,,216.91151392023855,40.02831963923745,3.0,,right,gold,0.0,236.0,2.0,right,2023_Sep_11_1349,habits_v_MRI,5.0,40.0,1.0,5.0,30.0,15.0,5.0,15.0,30.0,30.0,60.0,RR,59.68528812552524,
12.0,1.0,resp2,stim/right_resp_img.png,"[-0.5, 0]",right,stim/gold_coin.png,gold,,,,,training,,,gold,deval,,,,,0.0,0.0,0.0,0.0,1.0,1.0,3.0,1.0,,,,,,,,,0.0,training_resp,,218.4779633014441,41.59493030570593,3.0,20.0,right,gold,1.0,236.0,2.0,right,2023_Sep_11_1349,habits_v_MRI,5.0,40.0,1.0,5.0,30.0,15.0,5.0,15.0,30.0,30.0,60.0,RR,59.68528812552524,
12.0,1.0,resp2,stim/right_resp_img.png,"[-0.5, 0]",right,stim/gold_coin.png,gold,,,,,training,,,gold,deval,,,,,0.0,0.0,0.0,0.0,1.0,1.0,3.0,1.0,,,,,,,,,0.0,training_resp,,219.294518617744,42.41143840941186,3.0,,right,gold,0.0,236.0,2.0,right,2023_Sep_11_1349,habits_v_MRI,5.0,40.0,1.0,5.0,30.0,15.0,5.0,15.0,30.0,30.0,60.0,RR,59.68528812552524,
12.0,1.0,resp2,stim/right_resp_img.png,"[-0.5, 0]",right,stim/gold_coin.png,gold,,,,,training,,,gold,deval,,,,,0.0,0.0,0.0,0.0,1.0,1.0,3.0,1.0,,,,,,,,,0.0,training_resp,,220.17829528516268,43.29515848036499,3.0,,right,gold,0.0,236.0,2.0,right,2023_Sep_11_1349,habits_v_MRI,5.0,40.0,1.0,5.0,30.0,15.0,5.0,15.0,30.0,30.0,60.0,RR,59.68528812552524,
12.0,1.0,resp2,stim/right_resp_img.png,"[-0.5, 0]",right,stim/gold_coin.png,gold,,,,,training,,,gold,deval,,,,,0.0,0.0,0.0,0.0,1.0,1.0,3.0,1.0,,,,,,,,,0.0,training_resp,,221.07762219777945,44.1946686716874,3.0,,right,gold,0.0,236.0,2.0,right,2023_Sep_11_1349,habits_v_MRI,5.0,40.0,1.0,5.0,30.0,15.0,5.0,15.0,30.0,30.0,60.0,RR,59.68528812552524,
12.0,1.0,resp2,stim/right_resp_img.png,"[-0.5, 0]",right,stim/gold_coin.png,gold,,,,,training,,,gold,deval,,,,,0.0,0.0,0.0,0.0,1.0,1.0,3.0,1.0,,,,,,,,,0.0,training_resp,,221.9944599978826,45.11137157866324,3.0,,right,gold,0.0,236.0,2.0,right,2023_Sep_11_1349,habits_v_MRI,5.0,40.0,1.0,5.0,30.0,15.0,5.0,15.0,30.0,30.0,60.0,RR,59.68528812552524,
12.0,1.0,resp2,stim/right_resp_img.png,"[-0.5, 0]",right,stim/gold_coin.png,gold,,,,,training,,,gold,deval,,,,,0.0,0.0,0.0,0.0,1.0,1.0,3.0,1.0,,,,,,,,,0.0,training_resp,,222.7944105566185,45.91131832520296,3.0,,right,gold,0.0,236.0,2.0,right,2023_Sep_11_1349,habits_v_MRI,5.0,40.0,1.0,5.0,30.0,15.0,5.0,15.0,30.0,30.0,60.0,RR,59.68528812552524,
12.0,1.0,resp2,stim/right_resp_img.png,"[-0.5, 0]",right,stim/gold_coin.png,gold,,,,,training,,,gold,deval,,,,,0.0,0.0,0.0,0.0,1.0,1.0,3.0,1.0,,,,,,,,,0.0,training_resp,,223.727571011701,46.844590506985696,3.0,,right,gold,0.0,236.0,2.0,right,2023_Sep_11_1349,habits_v_MRI,5.0,40.0,1.0,5.0,30.0,15.0,5.0,15.0,30.0,30.0,60.0,RR,59.68528812552524,
12.0,1.0,resp2,stim/right_resp_img.png,"[-0.5, 0]",right,stim/gold_coin.png,gold,,,,,training,,,gold,deval,,,,,0.0,0.0,0.0,0.0,1.0,1.0,3.0,1.0,,,,,,,,,0.0,training_resp,,225.32750233350453,48.444435321238416,3.0,,right,gold,0.0,236.0,2.0,right,2023_Sep_11_1349,habits_v_MRI,5.0,40.0,1.0,5.0,30.0,15.0,5.0,15.0,30.0,30.0,60.0,RR,59.68528812552524,
12.0,1.0,resp2,stim/right_resp_img.png,"[-0.5, 0]",right,stim/gold_coin.png,gold,,,,,training,,,gold,deval,,,,,0.0,0.0,0.0,0.0,1.0,1.0,3.0,1.0,,,,,,,,,0.0,training_resp,,226.19434844713032,49.31111751038952,3.0,,right,gold,0.0,236.0,2.0,right,2023_Sep_11_1349,habits_v_MRI,5.0,40.0,1.0,5.0,30.0,15.0,5.0,15.0,30.0,30.0,60.0,RR,59.68528812552524,
12.0,1.0,resp2,stim/right_resp_img.png,"[-0.5, 0]",right,stim/gold_coin.png,gold,,,,,training,,,gold,deval,,,,,0.0,0.0,0.0,0.0,1.0,1.0,3.0,1.0,,,,,,,,,0.0,training_resp,,227.07747293559987,50.19436750811656,3.0,,right,gold,0.0,236.0,2.0,right,2023_Sep_11_1349,habits_v_MRI,5.0,40.0,1.0,5.0,30.0,15.0,5.0,15.0,30.0,30.0,60.0,RR,59.68528812552524,
12.0,1.0,resp2,stim/right_resp_img.png,"[-0.5, 0]",right,stim/gold_coin.png,gold,,,,,training,,,gold,deval,,,,,0.0,0.0,0.0,0.0,1.0,1.0,3.0,1.0,,,,,,,,,0.0,training_resp,,228.7439253372395,51.8609272377671,3.0,,right,gold,0.0,236.0,2.0,right,2023_Sep_11_1349,habits_v_MRI,5.0,40.0,1.0,5.0,30.0,15.0,5.0,15.0,30.0,30.0,60.0,RR,59.68528812552524,
12.0,1.0,resp2,stim/right_resp_img.png,"[-0.5, 0]",right,stim/gold_coin.png,gold,,,,,training,,,gold,deval,,,,,0.0,0.0,0.0,0.0,1.0,1.0,3.0,1.0,,,,,,,,,0.0,ITI_start,30.0,229.06157666020408,52.17756011761594,,,,,,236.0,2.0,right,2023_Sep_11_1349,habits_v_MRI,5.0,40.0,1.0,5.0,30.0,15.0,5.0,15.0,30.0,30.0,60.0,RR,59.68528812552524,
12.0,0.0,resp1,stim/left_resp_img.png,"[0.5, 0]",left,stim/silver_coin.png,gold,,,,,training,,,silver,val,,,,,0.0,0.0,0.0,0.0,2.0,0.0,4.0,0.0,,,,,,,,,0.0,training_period_start,37.5,259.0886441393195,0.0,4.0,9.0,,,,236.0,2.0,right,2023_Sep_11_1349,habits_v_MRI,5.0,40.0,1.0,5.0,30.0,15.0,5.0,15.0,30.0,30.0,60.0,RR,59.68528812552524,
12.0,0.0,resp1,stim/left_resp_img.png,"[0.5, 0]",left,stim/silver_coin.png,gold,,,,,training,,,silver,val,,,,,0.0,0.0,0.0,0.0,2.0,0.0,4.0,0.0,,,,,,,,,0.0,training_resp,,259.642045836099,0.5656602564085915,4.0,,left,silver,0.0,236.0,2.0,right,2023_Sep_11_1349,habits_v_MRI,5.0,40.0,1.0,5.0,30.0,15.0,5.0,15.0,30.0,30.0,60.0,RR,59.68528812552524,
12.0,0.0,resp1,stim/left_resp_img.png,"[0.5, 0]",left,stim/silver_coin.png,gold,,,,,training,,,silver,val,,,,,0.0,0.0,0.0,0.0,2.0,0.0,4.0,0.0,,,,,,,,,0.0,training_resp,,260.342006277222,1.2656491423877014,4.0,,left,silver,0.0,236.0,2.0,right,2023_Sep_11_1349,habits_v_MRI,5.0,40.0,1.0,5.0,30.0,15.0,5.0,15.0,30.0,30.0,60.0,RR,59.68528812552524,
12.0,0.0,resp1,stim/left_resp_img.png,"[0.5, 0]",left,stim/silver_coin.png,gold,,,,,training,,,silver,val,,,,,0.0,0.0,0.0,0.0,2.0,0.0,4.0,0.0,,,,,,,,,0.0,training_resp,,261.1917004363786,2.1154661715900147,4.0,,left,silver,0.0,236.0,2.0,right,2023_Sep_11_1349,habits_v_MRI,5.0,40.0,1.0,5.0,30.0,15.0,5.0,15.0,30.0,30.0,60.0,RR,59.68528812552524,
12.0,0.0,resp1,stim/left_resp_img.png,"[0.5, 0]",left,stim/silver_coin.png,gold,,,,,training,,,silver,val,,,,,0.0,0.0,0.0,0.0,2.0,0.0,4.0,0.0,,,,,,,,,0.0,training_resp,,262.3092395634503,3.232815861789277,4.0,,left,silver,0.0,236.0,2.0,right,2023_Sep_11_1349,habits_v_MRI,5.0,40.0,1.0,5.0,30.0,15.0,5.0,15.0,30.0,30.0,60.0,RR,59.68528812552524,
12.0,0.0,resp1,stim/left_resp_img.png,"[0.5, 0]",left,stim/silver_coin.png,gold,,,,,training,,,silver,val,,,,,0.0,0.0,0.0,0.0,2.0,0.0,4.0,0.0,,,,,,,,,0.0,training_resp,,263.0420368041232,3.9655136920919176,4.0,,left,silver,0.0,236.0,2.0,right,2023_Sep_11_1349,habits_v_MRI,5.0,40.0,1.0,5.0,30.0,15.0,5.0,15.0,30.0,30.0,60.0,RR,59.68528812552524,
12.0,0.0,resp1,stim/left_resp_img.png,"[0.5, 0]",left,stim/silver_coin.png,gold,,,,,training,,,silver,val,,,,,0.0,0.0,0.0,0.0,2.0,0.0,4.0,0.0,,,,,,,,,0.0,training_resp,,263.808367889922,4.73213802382088,4.0,,left,silver,0.0,236.0,2.0,right,2023_Sep_11_1349,habits_v_MRI,5.0,40.0,1.0,5.0,30.0,15.0,5.0,15.0,30.0,30.0,60.0,RR,59.68528812552524,
12.0,0.0,resp1,stim/left_resp_img.png,"[0.5, 0]",left,stim/silver_coin.png,gold,,,,,training,,,silver,val,,,,,0.0,0.0,0.0,0.0,2.0,0.0,4.0,0.0,,,,,,,,,0.0,training_resp,,264.7083419963073,5.632059639185172,4.0,,left,silver,0.0,236.0,2.0,right,2023_Sep_11_1349,habits_v_MRI,5.0,40.0,1.0,5.0,30.0,15.0,5.0,15.0,30.0,30.0,60.0,RR,59.68528812552524,
12.0,0.0,resp1,stim/left_resp_img.png,"[0.5, 0]",left,stim/silver_coin.png,gold,,,,,training,,,silver,val,,,,,0.0,0.0,0.0,0.0,2.0,0.0,4.0,0.0,,,,,,,,,0.0,training_resp,,265.4751806908116,6.398719746917777,4.0,,left,silver,0.0,236.0,2.0,right,2023_Sep_11_1349,habits_v_MRI,5.0,40.0,1.0,5.0,30.0,15.0,5.0,15.0,30.0,30.0,60.0,RR,59.68528812552524,
12.0,0.0,resp1,stim/left_resp_img.png,"[0.5, 0]",left,stim/silver_coin.png,gold,,,,,training,,,silver,val,,,,,0.0,0.0,0.0,0.0,2.0,0.0,4.0,0.0,,,,,,,,,0.0,training_resp,,266.24150796441245,7.165285136214152,4.0,5.0,left,silver,1.0,236.0,2.0,right,2023_Sep_11_1349,habits_v_MRI,5.0,40.0,1.0,5.0,30.0,15.0,5.0,15.0,30.0,30.0,60.0,RR,59.68528812552524,
12.0,0.0,resp1,stim/left_resp_img.png,"[0.5, 0]",left,stim/silver_coin.png,gold,,,,,training,,,silver,val,,,,,0.0,0.0,0.0,0.0,2.0,0.0,4.0,0.0,,,,,,,,,0.0,training_resp,,267.05817060872323,7.981896462486475,4.0,,left,silver,0.0,236.0,2.0,right,2023_Sep_11_1349,habits_v_MRI,5.0,40.0,1.0,5.0,30.0,15.0,5.0,15.0,30.0,30.0,60.0,RR,59.68528812552524,
12.0,0.0,resp1,stim/left_resp_img.png,"[0.5, 0]",left,stim/silver_coin.png,gold,,,,,training,,,silver,val,,,,,0.0,0.0,0.0,0.0,2.0,0.0,4.0,0.0,,,,,,,,,0.0,training_resp,,267.9414425998948,8.865213613531523,4.0,,left,silver,0.0,236.0,2.0,right,2023_Sep_11_1349,habits_v_MRI,5.0,40.0,1.0,5.0,30.0,15.0,5.0,15.0,30.0,30.0,60.0,RR,59.68528812552524,
12.0,0.0,resp1,stim/left_resp_img.png,"[0.5, 0]",left,stim/silver_coin.png,gold,,,,,training,,,silver,val,,,,,0.0,0.0,0.0,0.0,2.0,0.0,4.0,0.0,,,,,,,,,0.0,training_resp,,268.7746657216321,9.698415621562162,4.0,,left,silver,0.0,236.0,2.0,right,2023_Sep_11_1349,habits_v_MRI,5.0,40.0,1.0,5.0,30.0,15.0,5.0,15.0,30.0,30.0,60.0,RR,59.68528812552524,
12.0,0.0,resp1,stim/left_resp_img.png,"[0.5, 0]",left,stim/silver_coin.png,gold,,,,,training,,,silver,val,,,,,0.0,0.0,0.0,0.0,2.0,0.0,4.0,0.0,,,,,,,,,0.0,training_resp,,269.6413872057383,10.56512625556934,4.0,,left,silver,0.0,236.0,2.0,right,2023_Sep_11_1349,habits_v_MRI,5.0,40.0,1.0,5.0,30.0,15.0,5.0,15.0,30.0,30.0,60.0,RR,59.68528812552524,
12.0,0.0,resp1,stim/left_resp_img.png,"[0.5, 0]",left,stim/silver_coin.png,gold,,,,,training,,,silver,val,,,,,0.0,0.0,0.0,0.0,2.0,0.0,4.0,0.0,,,,,,,,,0.0,training_resp,,270.44132632788387,11.365051888400558,4.0,7.0,left,silver,1.0,236.0,2.0,right,2023_Sep_11_1349,habits_v_MRI,5.0,40.0,1.0,5.0,30.0,15.0,5.0,15.0,30.0,30.0,60.0,RR,59.68528812552524,
12.0,0.0,resp1,stim/left_resp_img.png,"[0.5, 0]",left,stim/silver_coin.png,gold,,,,,training,,,silver,val,,,,,0.0,0.0,0.0,0.0,2.0,0.0,4.0,0.0,,,,,,,,,0.0,training_resp,,271.3911460842719,12.314926188533718,4.0,,left,silver,0.0,236.0,2.0,right,2023_Sep_11_1349,habits_v_MRI,5.0,40.0,1.0,5.0,30.0,15.0,5.0,15.0,30.0,30.0,60.0,RR,59.68528812552524,
12.0,0.0,resp1,stim/left_resp_img.png,"[0.5, 0]",left,stim/silver_coin.png,gold,,,,,training,,,silver,val,,,,,0.0,0.0,0.0,0.0,2.0,0.0,4.0,0.0,,,,,,,,,0.0,training_resp,,272.2245495522566,13.148295639990463,4.0,,left,silver,0.0,236.0,2.0,right,2023_Sep_11_1349,habits_v_MRI,5.0,40.0,1.0,5.0,30.0,15.0,5.0,15.0,30.0,30.0,60.0,RR,59.68528812552524,
12.0,0.0,resp1,stim/left_resp_img.png,"[0.5, 0]",left,stim/silver_coin.png,gold,,,,,training,,,silver,val,,,,,0.0,0.0,0.0,0.0,2.0,0.0,4.0,0.0,,,,,,,,,0.0,training_resp,,273.02465377186127,13.94824121354577,4.0,,left,silver,0.0,236.0,2.0,right,2023_Sep_11_1349,habits_v_MRI,5.0,40.0,1.0,5.0,30.0,15.0,5.0,15.0,30.0,30.0,60.0,RR,59.68528812552524,
12.0,0.0,resp1,stim/left_resp_img.png,"[0.5, 0]",left,stim/silver_coin.png,gold,,,,,training,,,silver,val,,,,,0.0,0.0,0.0,0.0,2.0,0.0,4.0,0.0,,,,,,,,,0.0,training_resp,,273.75801697717907,14.681529641151428,4.0,,left,silver,0.0,236.0,2.0,right,2023_Sep_11_1349,habits_v_MRI,5.0,40.0,1.0,5.0,30.0,15.0,5.0,15.0,30.0,30.0,60.0,RR,59.68528812552524,
12.0,0.0,resp1,stim/left_resp_img.png,"[0.5, 0]",left,stim/silver_coin.png,gold,,,,,training,,,silver,val,,,,,0.0,0.0,0.0,0.0,2.0,0.0,4.0,0.0,,,,,,,,,0.0,training_resp,,274.45786979704826,15.381521752837216,4.0,,left,silver,0.0,236.0,2.0,right,2023_Sep_11_1349,habits_v_MRI,5.0,40.0,1.0,5.0,30.0,15.0,5.0,15.0,30.0,30.0,60.0,RR,59.68528812552524,
12.0,0.0,resp1,stim/left_resp_img.png,"[0.5, 0]",left,stim/silver_coin.png,gold,,,,,training,,,silver,val,,,,,0.0,0.0,0.0,0.0,2.0,0.0,4.0,0.0,,,,,,,,,0.0,training_resp,,275.2911562599056,16.214835487566233,4.0,,left,silver,0.0,236.0,2.0,right,2023_Sep_11_1349,habits_v_MRI,5.0,40.0,1.0,5.0,30.0,15.0,5.0,15.0,30.0,30.0,60.0,RR,59.68528812552524,
12.0,0.0,resp1,stim/left_resp_img.png,"[0.5, 0]",left,stim/silver_coin.png,gold,,,,,training,,,silver,val,,,,,0.0,0.0,0.0,0.0,2.0,0.0,4.0,0.0,,,,,,,,,0.0,training_resp,,276.1409861919292,17.064657208702556,4.0,12.0,left,silver,1.0,236.0,2.0,right,2023_Sep_11_1349,habits_v_MRI,5.0,40.0,1.0,5.0,30.0,15.0,5.0,15.0,30.0,30.0,60.0,RR,59.68528812552524,
12.0,0.0,resp1,stim/left_resp_img.png,"[0.5, 0]",left,stim/silver_coin.png,gold,,,,,training,,,silver,val,,,,,0.0,0.0,0.0,0.0,2.0,0.0,4.0,0.0,,,,,,,,,0.0,training_resp,,277.0741756783591,17.99794669199582,4.0,,left,silver,0.0,236.0,2.0,right,2023_Sep_11_1349,habits_v_MRI,5.0,40.0,1.0,5.0,30.0,15.0,5.0,15.0,30.0,30.0,60.0,RR,59.68528812552524,
12.0,0.0,resp1,stim/left_resp_img.png,"[0.5, 0]",left,stim/silver_coin.png,gold,,,,,training,,,silver,val,,,,,0.0,0.0,0.0,0.0,2.0,0.0,4.0,0.0,,,,,,,,,0.0,training_resp,,277.9408813271839,18.86456671300948,4.0,,left,silver,0.0,236.0,2.0,right,2023_Sep_11_1349,habits_v_MRI,5.0,40.0,1.0,5.0,30.0,15.0,5.0,15.0,30.0,30.0,60.0,RR,59.68528812552524,
12.0,0.0,resp1,stim/left_resp_img.png,"[0.5, 0]",left,stim/silver_coin.png,gold,,,,,training,,,silver,val,,,,,0.0,0.0,0.0,0.0,2.0,0.0,4.0,0.0,,,,,,,,,0.0,training_resp,,278.7909092002101,19.71451658261685,4.0,,left,silver,0.0,236.0,2.0,right,2023_Sep_11_1349,habits_v_MRI,5.0,40.0,1.0,5.0,30.0,15.0,5.0,15.0,30.0,30.0,60.0,RR,59.68528812552524,
12.0,0.0,resp1,stim/left_resp_img.png,"[0.5, 0]",left,stim/silver_coin.png,gold,,,,,training,,,silver,val,,,,,0.0,0.0,0.0,0.0,2.0,0.0,4.0,0.0,,,,,,,,,0.0,training_resp,,279.72404971456854,20.64777263587348,4.0,,left,silver,0.0,236.0,2.0,right,2023_Sep_11_1349,habits_v_MRI,5.0,40.0,1.0,5.0,30.0,15.0,5.0,15.0,30.0,30.0,60.0,RR,59.68528812552524,
12.0,0.0,resp1,stim/left_resp_img.png,"[0.5, 0]",left,stim/silver_coin.png,gold,,,,,training,,,silver,val,,,,,0.0,0.0,0.0,0.0,2.0,0.0,4.0,0.0,,,,,,,,,0.0,training_resp,,280.6408954323142,21.56450340121228,4.0,,left,silver,0.0,236.0,2.0,right,2023_Sep_11_1349,habits_v_MRI,5.0,40.0,1.0,5.0,30.0,15.0,5.0,15.0,30.0,30.0,60.0,RR,59.68528812552524,
12.0,0.0,resp1,stim/left_resp_img.png,"[0.5, 0]",left,stim/silver_coin.png,gold,,,,,training,,,silver,val,,,,,0.0,0.0,0.0,0.0,2.0,0.0,4.0,0.0,,,,,,,,,0.0,training_resp,,281.4908482343817,22.41444711265649,4.0,,left,silver,0.0,236.0,2.0,right,2023_Sep_11_1349,habits_v_MRI,5.0,40.0,1.0,5.0,30.0,15.0,5.0,15.0,30.0,30.0,60.0,RR,59.68528812552524,
12.0,0.0,resp1,stim/left_resp_img.png,"[0.5, 0]",left,stim/silver_coin.png,gold,,,,,training,,,silver,val,,,,,0.0,0.0,0.0,0.0,2.0,0.0,4.0,0.0,,,,,,,,,0.0,training_resp,,282.40728927274176,23.331020404932133,4.0,,left,silver,0.0,236.0,2.0,right,2023_Sep_11_1349,habits_v_MRI,5.0,40.0,1.0,5.0,30.0,15.0,5.0,15.0,30.0,30.0,60.0,RR,59.68528812552524,
12.0,0.0,resp1,stim/left_resp_img.png,"[0.5, 0]",left,stim/silver_coin.png,gold,,,,,training,,,silver,val,,,,,0.0,0.0,0.0,0.0,2.0,0.0,4.0,0.0,,,,,,,,,0.0,training_resp,,283.27395591985805,24.19760787564701,4.0,,left,silver,0.0,236.0,2.0,right,2023_Sep_11_1349,habits_v_MRI,5.0,40.0,1.0,5.0,30.0,15.0,5.0,15.0,30.0,30.0,60.0,RR,59.68528812552524,
12.0,0.0,resp1,stim/left_resp_img.png,"[0.5, 0]",left,stim/silver_coin.png,gold,,,,,training,,,silver,val,,,,,0.0,0.0,0.0,0.0,2.0,0.0,4.0,0.0,,,,,,,,,0.0,training_resp,,284.0907059514557,25.014188411096256,4.0,,left,silver,0.0,236.0,2.0,right,2023_Sep_11_1349,habits_v_MRI,5.0,40.0,1.0,5.0,30.0,15.0,5.0,15.0,30.0,30.0,60.0,RR,59.68528812552524,
12.0,0.0,resp1,stim/left_resp_img.png,"[0.5, 0]",left,stim/silver_coin.png,gold,,,,,training,,,silver,val,,,,,0.0,0.0,0.0,0.0,2.0,0.0,4.0,0.0,,,,,,,,,0.0,training_resp,,284.9403552439853,25.864241210027103,4.0,,left,silver,0.0,236.0,2.0,right,2023_Sep_11_1349,habits_v_MRI,5.0,40.0,1.0,5.0,30.0,15.0,5.0,15.0,30.0,30.0,60.0,RR,59.68528812552524,
12.0,0.0,resp1,stim/left_resp_img.png,"[0.5, 0]",left,stim/silver_coin.png,gold,,,,,training,,,silver,val,,,,,0.0,0.0,0.0,0.0,2.0,0.0,4.0,0.0,,,,,,,,,0.0,training_resp,,285.724470815725,26.6478782044087,4.0,,left,silver,0.0,236.0,2.0,right,2023_Sep_11_1349,habits_v_MRI,5.0,40.0,1.0,5.0,30.0,15.0,5.0,15.0,30.0,30.0,60.0,RR,59.68528812552524,
12.0,0.0,resp1,stim/left_resp_img.png,"[0.5, 0]",left,stim/silver_coin.png,gold,,,,,training,,,silver,val,,,,,0.0,0.0,0.0,0.0,2.0,0.0,4.0,0.0,,,,,,,,,0.0,training_resp,,286.5570467436937,27.48068403718753,4.0,18.0,left,silver,1.0,236.0,2.0,right,2023_Sep_11_1349,habits_v_MRI,5.0,40.0,1.0,5.0,30.0,15.0,5.0,15.0,30.0,30.0,60.0,RR,59.68528812552524,
12.0,0.0,resp1,stim/left_resp_img.png,"[0.5, 0]",left,stim/silver_coin.png,gold,,,,,training,,,silver,val,,,,,0.0,0.0,0.0,0.0,2.0,0.0,4.0,0.0,,,,,,,,,0.0,training_resp,,287.3238147659304,28.24736819108693,4.0,,left,silver,0.0,236.0,2.0,right,2023_Sep_11_1349,habits_v_MRI,5.0,40.0,1.0,5.0,30.0,15.0,5.0,15.0,30.0,30.0,60.0,RR,59.68528812552524,
12.0,0.0,resp1,stim/left_resp_img.png,"[0.5, 0]",left,stim/silver_coin.png,gold,,,,,training,,,silver,val,,,,,0.0,0.0,0.0,0.0,2.0,0.0,4.0,0.0,,,,,,,,,0.0,training_resp,,288.2234868290052,29.14724054113321,4.0,,left,silver,0.0,236.0,2.0,right,2023_Sep_11_1349,habits_v_MRI,5.0,40.0,1.0,5.0,30.0,15.0,5.0,15.0,30.0,30.0,60.0,RR,59.68528812552524,
12.0,0.0,resp1,stim/left_resp_img.png,"[0.5, 0]",left,stim/silver_coin.png,gold,,,,,training,,,silver,val,,,,,0.0,0.0,0.0,0.0,2.0,0.0,4.0,0.0,,,,,,,,,0.0,training_resp,,289.04012396092,29.963856852586105,4.0,,left,silver,0.0,236.0,2.0,right,2023_Sep_11_1349,habits_v_MRI,5.0,40.0,1.0,5.0,30.0,15.0,5.0,15.0,30.0,30.0,60.0,RR,59.68528812552524,
12.0,0.0,resp1,stim/left_resp_img.png,"[0.5, 0]",left,stim/silver_coin.png,gold,,,,,training,,,silver,val,,,,,0.0,0.0,0.0,0.0,2.0,0.0,4.0,0.0,,,,,,,,,0.0,training_resp,,289.8236037754832,30.74723461756548,4.0,,left,silver,0.0,236.0,2.0,right,2023_Sep_11_1349,habits_v_MRI,5.0,40.0,1.0,5.0,30.0,15.0,5.0,15.0,30.0,30.0,60.0,RR,59.68528812552524,
12.0,0.0,resp1,stim/left_resp_img.png,"[0.5, 0]",left,stim/silver_coin.png,gold,,,,,training,,,silver,val,,,,,0.0,0.0,0.0,0.0,2.0,0.0,4.0,0.0,,,,,,,,,0.0,training_resp,,290.60694693744153,31.530465759578878,4.0,,left,silver,0.0,236.0,2.0,right,2023_Sep_11_1349,habits_v_MRI,5.0,40.0,1.0,5.0,30.0,15.0,5.0,15.0,30.0,30.0,60.0,RR,59.68528812552524,
12.0,0.0,resp1,stim/left_resp_img.png,"[0.5, 0]",left,stim/silver_coin.png,gold,,,,,training,,,silver,val,,,,,0.0,0.0,0.0,0.0,2.0,0.0,4.0,0.0,,,,,,,,,0.0,training_resp,,291.62362881868467,32.547097789014515,4.0,,left,silver,0.0,236.0,2.0,right,2023_Sep_11_1349,habits_v_MRI,5.0,40.0,1.0,5.0,30.0,15.0,5.0,15.0,30.0,30.0,60.0,RR,59.68528812552524,
12.0,0.0,resp1,stim/left_resp_img.png,"[0.5, 0]",left,stim/silver_coin.png,gold,,,,,training,,,silver,val,,,,,0.0,0.0,0.0,0.0,2.0,0.0,4.0,0.0,,,,,,,,,0.0,training_resp,,292.5733544431296,33.49702721938047,4.0,,left,silver,0.0,236.0,2.0,right,2023_Sep_11_1349,habits_v_MRI,5.0,40.0,1.0,5.0,30.0,15.0,5.0,15.0,30.0,30.0,60.0,RR,59.68528812552524,
12.0,0.0,resp1,stim/left_resp_img.png,"[0.5, 0]",left,stim/silver_coin.png,gold,,,,,training,,,silver,val,,,,,0.0,0.0,0.0,0.0,2.0,0.0,4.0,0.0,,,,,,,,,0.0,training_resp,,293.4733370536469,34.39698255802614,4.0,,left,silver,0.0,236.0,2.0,right,2023_Sep_11_1349,habits_v_MRI,5.0,40.0,1.0,5.0,30.0,15.0,5.0,15.0,30.0,30.0,60.0,RR,59.68528812552524,
12.0,0.0,resp1,stim/left_resp_img.png,"[0.5, 0]",left,stim/silver_coin.png,gold,,,,,training,,,silver,val,,,,,0.0,0.0,0.0,0.0,2.0,0.0,4.0,0.0,,,,,,,,,0.0,training_resp,,294.3071551713765,35.23069276125352,4.0,,left,silver,0.0,236.0,2.0,right,2023_Sep_11_1349,habits_v_MRI,5.0,40.0,1.0,5.0,30.0,15.0,5.0,15.0,30.0,30.0,60.0,RR,59.68528812552524,
12.0,0.0,resp1,stim/left_resp_img.png,"[0.5, 0]",left,stim/silver_coin.png,gold,,,,,training,,,silver,val,,,,,0.0,0.0,0.0,0.0,2.0,0.0,4.0,0.0,,,,,,,,,0.0,training_resp,,295.1070679013883,36.03059024247705,4.0,,left,silver,0.0,236.0,2.0,right,2023_Sep_11_1349,habits_v_MRI,5.0,40.0,1.0,5.0,30.0,15.0,5.0,15.0,30.0,30.0,60.0,RR,59.68528812552524,
12.0,0.0,resp1,stim/left_resp_img.png,"[0.5, 0]",left,stim/silver_coin.png,gold,,,,,training,,,silver,val,,,,,0.0,0.0,0.0,0.0,2.0,0.0,4.0,0.0,,,,,,,,,0.0,training_resp,,295.939777256257,36.86347085296802,4.0,,left,silver,0.0,236.0,2.0,right,2023_Sep_11_1349,habits_v_MRI,5.0,40.0,1.0,5.0,30.0,15.0,5.0,15.0,30.0,30.0,60.0,RR,59.68528812552524,
12.0,0.0,resp1,stim/left_resp_img.png,"[0.5, 0]",left,stim/silver_coin.png,gold,,,,,training,,,silver,val,,,,,0.0,0.0,0.0,0.0,2.0,0.0,4.0,0.0,,,,,,,,,0.0,ITI_start,18.33333333333333,296.2572681736965,37.18011223694703,,,,,,236.0,2.0,right,2023_Sep_11_1349,habits_v_MRI,5.0,40.0,1.0,5.0,30.0,15.0,5.0,15.0,30.0,30.0,60.0,RR,59.68528812552524,
12.0,1.0,resp2,stim/right_resp_img.png,"[-0.5, 0]",right,stim/gold_coin.png,gold,,,,,training,,,gold,deval,,,,,0.0,0.0,0.0,0.0,2.0,1.0,5.0,1.0,,,,,,,,,0.0,training_period_start,37.5,314.6259501534696,0.0,5.0,26.0,,,,236.0,2.0,right,2023_Sep_11_1349,habits_v_MRI,5.0,40.0,1.0,5.0,30.0,15.0,5.0,15.0,30.0,30.0,60.0,RR,59.68528812552524,
12.0,1.0,resp2,stim/right_resp_img.png,"[-0.5, 0]",right,stim/gold_coin.png,gold,,,,,training,,,gold,deval,,,,,0.0,0.0,0.0,0.0,2.0,1.0,5.0,1.0,,,,,,,,,0.0,training_resp,,315.2387142104344,0.6314860501443036,5.0,,right,gold,0.0,236.0,2.0,right,2023_Sep_11_1349,habits_v_MRI,5.0,40.0,1.0,5.0,30.0,15.0,5.0,15.0,30.0,30.0,60.0,RR,59.68528812552524,
12.0,1.0,resp2,stim/right_resp_img.png,"[-0.5, 0]",right,stim/gold_coin.png,gold,,,,,training,,,gold,deval,,,,,0.0,0.0,0.0,0.0,2.0,1.0,5.0,1.0,,,,,,,,,0.0,training_resp,,315.60509772860496,0.9981428735227382,5.0,,left,,,236.0,2.0,right,2023_Sep_11_1349,habits_v_MRI,5.0,40.0,1.0,5.0,30.0,15.0,5.0,15.0,30.0,30.0,60.0,RR,59.68528812552524,
12.0,1.0,resp2,stim/right_resp_img.png,"[-0.5, 0]",right,stim/gold_coin.png,gold,,,,,training,,,gold,deval,,,,,0.0,0.0,0.0,0.0,2.0,1.0,5.0,1.0,,,,,,,,,0.0,training_resp,,316.0885828509199,1.4813793232879109,5.0,,right,gold,0.0,236.0,2.0,right,2023_Sep_11_1349,habits_v_MRI,5.0,40.0,1.0,5.0,30.0,15.0,5.0,15.0,30.0,30.0,60.0,RR,59.68528812552524,
12.0,1.0,resp2,stim/right_resp_img.png,"[-0.5, 0]",right,stim/gold_coin.png,gold,,,,,training,,,gold,deval,,,,,0.0,0.0,0.0,0.0,2.0,1.0,5.0,1.0,,,,,,,,,0.0,training_resp,,316.9555576995099,2.347942161346509,5.0,,right,gold,0.0,236.0,2.0,right,2023_Sep_11_1349,habits_v_MRI,5.0,40.0,1.0,5.0,30.0,15.0,5.0,15.0,30.0,30.0,60.0,RR,59.68528812552524,
12.0,1.0,resp2,stim/right_resp_img.png,"[-0.5, 0]",right,stim/gold_coin.png,gold,,,,,training,,,gold,deval,,,,,0.0,0.0,0.0,0.0,2.0,1.0,5.0,1.0,,,,,,,,,0.0,training_resp,,317.8385238351766,3.231303006035887,5.0,,right,gold,0.0,236.0,2.0,right,2023_Sep_11_1349,habits_v_MRI,5.0,40.0,1.0,5.0,30.0,15.0,5.0,15.0,30.0,30.0,60.0,RR,59.68528812552524,
12.0,1.0,resp2,stim/right_resp_img.png,"[-0.5, 0]",right,stim/gold_coin.png,gold,,,,,training,,,gold,deval,,,,,0.0,0.0,0.0,0.0,2.0,1.0,5.0,1.0,,,,,,,,,0.0,training_resp,,318.6550008548111,4.04791286607724,5.0,,right,gold,0.0,236.0,2.0,right,2023_Sep_11_1349,habits_v_MRI,5.0,40.0,1.0,5.0,30.0,15.0,5.0,15.0,30.0,30.0,60.0,RR,59.68528812552524,
12.0,1.0,resp2,stim/right_resp_img.png,"[-0.5, 0]",right,stim/gold_coin.png,gold,,,,,training,,,gold,deval,,,,,0.0,0.0,0.0,0.0,2.0,1.0,5.0,1.0,,,,,,,,,0.0,training_resp,,319.55497290847416,4.947891371150035,5.0,,right,gold,0.0,236.0,2.0,right,2023_Sep_11_1349,habits_v_MRI,5.0,40.0,1.0,5.0,30.0,15.0,5.0,15.0,30.0,30.0,60.0,RR,59.68528812552524,
12.0,1.0,resp2,stim/right_resp_img.png,"[-0.5, 0]",right,stim/gold_coin.png,gold,,,,,training,,,gold,deval,,,,,0.0,0.0,0.0,0.0,2.0,1.0,5.0,1.0,,,,,,,,,0.0,training_resp,,320.47154532101194,5.864463490441267,5.0,,right,gold,0.0,236.0,2.0,right,2023_Sep_11_1349,habits_v_MRI,5.0,40.0,1.0,5.0,30.0,15.0,5.0,15.0,30.0,30.0,60.0,RR,59.68528812552524,
12.0,1.0,resp2,stim/right_resp_img.png,"[-0.5, 0]",right,stim/gold_coin.png,gold,,,,,training,,,gold,deval,,,,,0.0,0.0,0.0,0.0,2.0,1.0,5.0,1.0,,,,,,,,,0.0,training_resp,,321.2881941827636,6.681097689897797,5.0,,right,gold,0.0,236.0,2.0,right,2023_Sep_11_1349,habits_v_MRI,5.0,40.0,1.0,5.0,30.0,15.0,5.0,15.0,30.0,30.0,60.0,RR,59.68528812552524,
12.0,1.0,resp2,stim/right_resp_img.png,"[-0.5, 0]",right,stim/gold_coin.png,gold,,,,,training,,,gold,deval,,,,,0.0,0.0,0.0,0.0,2.0,1.0,5.0,1.0,,,,,,,,,0.0,training_resp,,322.1547429450165,7.547641760214901,5.0,,right,gold,0.0,236.0,2.0,right,2023_Sep_11_1349,habits_v_MRI,5.0,40.0,1.0,5.0,30.0,15.0,5.0,15.0,30.0,30.0,60.0,RR,59.68528812552524,
12.0,1.0,resp2,stim/right_resp_img.png,"[-0.5, 0]",right,stim/gold_coin.png,gold,,,,,training,,,gold,deval,,,,,0.0,0.0,0.0,0.0,2.0,1.0,5.0,1.0,,,,,,,,,0.0,training_resp,,322.98807016905994,8.38106663515282,5.0,,right,gold,0.0,236.0,2.0,right,2023_Sep_11_1349,habits_v_MRI,5.0,40.0,1.0,5.0,30.0,15.0,5.0,15.0,30.0,30.0,60.0,RR,59.68528812552524,
12.0,1.0,resp2,stim/right_resp_img.png,"[-0.5, 0]",right,stim/gold_coin.png,gold,,,,,training,,,gold,deval,,,,,0.0,0.0,0.0,0.0,2.0,1.0,5.0,1.0,,,,,,,,,0.0,training_resp,,323.7715338550952,9.164229450865603,5.0,,right,gold,0.0,236.0,2.0,right,2023_Sep_11_1349,habits_v_MRI,5.0,40.0,1.0,5.0,30.0,15.0,5.0,15.0,30.0,30.0,60.0,RR,59.68528812552524,
12.0,1.0,resp2,stim/right_resp_img.png,"[-0.5, 0]",right,stim/gold_coin.png,gold,,,,,training,,,gold,deval,,,,,0.0,0.0,0.0,0.0,2.0,1.0,5.0,1.0,,,,,,,,,0.0,training_resp,,324.60455991556773,9.997467234899888,5.0,,right,gold,0.0,236.0,2.0,right,2023_Sep_11_1349,habits_v_MRI,5.0,40.0,1.0,5.0,30.0,15.0,5.0,15.0,30.0,30.0,60.0,RR,59.68528812552524,
12.0,1.0,resp2,stim/right_resp_img.png,"[-0.5, 0]",right,stim/gold_coin.png,gold,,,,,training,,,gold,deval,,,,,0.0,0.0,0.0,0.0,2.0,1.0,5.0,1.0,,,,,,,,,0.0,training_resp,,325.43806220743136,10.830836393110076,5.0,,right,gold,0.0,236.0,2.0,right,2023_Sep_11_1349,habits_v_MRI,5.0,40.0,1.0,5.0,30.0,15.0,5.0,15.0,30.0,30.0,60.0,RR,59.68528812552524,
12.0,1.0,resp2,stim/right_resp_img.png,"[-0.5, 0]",right,stim/gold_coin.png,gold,,,,,training,,,gold,deval,,,,,0.0,0.0,0.0,0.0,2.0,1.0,5.0,1.0,,,,,,,,,0.0,training_resp,,326.98827720068584,12.381140533127107,5.0,,right,gold,0.0,236.0,2.0,right,2023_Sep_11_1349,habits_v_MRI,5.0,40.0,1.0,5.0,30.0,15.0,5.0,15.0,30.0,30.0,60.0,RR,59.68528812552524,
12.0,1.0,resp2,stim/right_resp_img.png,"[-0.5, 0]",right,stim/gold_coin.png,gold,,,,,training,,,gold,deval,,,,,0.0,0.0,0.0,0.0,2.0,1.0,5.0,1.0,,,,,,,,,0.0,training_resp,,327.88765161914307,13.28061084300316,5.0,,right,gold,0.0,236.0,2.0,right,2023_Sep_11_1349,habits_v_MRI,5.0,40.0,1.0,5.0,30.0,15.0,5.0,15.0,30.0,30.0,60.0,RR,59.68528812552524,
12.0,1.0,resp2,stim/right_resp_img.png,"[-0.5, 0]",right,stim/gold_coin.png,gold,,,,,training,,,gold,deval,,,,,0.0,0.0,0.0,0.0,2.0,1.0,5.0,1.0,,,,,,,,,0.0,training_resp,,328.6710205867439,14.06394755355177,5.0,,right,gold,0.0,236.0,2.0,right,2023_Sep_11_1349,habits_v_MRI,5.0,40.0,1.0,5.0,30.0,15.0,5.0,15.0,30.0,30.0,60.0,RR,59.68528812552524,
12.0,1.0,resp2,stim/right_resp_img.png,"[-0.5, 0]",right,stim/gold_coin.png,gold,,,,,training,,,gold,deval,,,,,0.0,0.0,0.0,0.0,2.0,1.0,5.0,1.0,,,,,,,,,0.0,training_resp,,329.4544156532338,14.847238810982162,5.0,,right,gold,0.0,236.0,2.0,right,2023_Sep_11_1349,habits_v_MRI,5.0,40.0,1.0,5.0,30.0,15.0,5.0,15.0,30.0,30.0,60.0,RR,59.68528812552524,
12.0,1.0,resp2,stim/right_resp_img.png,"[-0.5, 0]",right,stim/gold_coin.png,gold,,,,,training,,,gold,deval,,,,,0.0,0.0,0.0,0.0,2.0,1.0,5.0,1.0,,,,,,,,,0.0,training_resp,,330.30444206002903,15.697167860129412,5.0,,right,gold,0.0,236.0,2.0,right,2023_Sep_11_1349,habits_v_MRI,5.0,40.0,1.0,5.0,30.0,15.0,5.0,15.0,30.0,30.0,60.0,RR,59.68528812552524,
12.0,1.0,resp2,stim/right_resp_img.png,"[-0.5, 0]",right,stim/gold_coin.png,gold,,,,,training,,,gold,deval,,,,,0.0,0.0,0.0,0.0,2.0,1.0,5.0,1.0,,,,,,,,,0.0,training_resp,,331.12081644359023,16.51375601997279,5.0,,right,gold,0.0,236.0,2.0,right,2023_Sep_11_1349,habits_v_MRI,5.0,40.0,1.0,5.0,30.0,15.0,5.0,15.0,30.0,30.0,60.0,RR,59.68528812552524,
12.0,1.0,resp2,stim/right_resp_img.png,"[-0.5, 0]",right,stim/gold_coin.png,gold,,,,,training,,,gold,deval,,,,,0.0,0.0,0.0,0.0,2.0,1.0,5.0,1.0,,,,,,,,,0.0,training_resp,,331.92078166462306,17.31366288506615,5.0,,right,gold,0.0,236.0,2.0,right,2023_Sep_11_1349,habits_v_MRI,5.0,40.0,1.0,5.0,30.0,15.0,5.0,15.0,30.0,30.0,60.0,RR,59.68528812552524,
12.0,1.0,resp2,stim/right_resp_img.png,"[-0.5, 0]",right,stim/gold_coin.png,gold,,,,,training,,,gold,deval,,,,,0.0,0.0,0.0,0.0,2.0,1.0,5.0,1.0,,,,,,,,,0.0,training_resp,,332.787488779677,18.180325426739728,5.0,,right,gold,0.0,236.0,2.0,right,2023_Sep_11_1349,habits_v_MRI,5.0,40.0,1.0,5.0,30.0,15.0,5.0,15.0,30.0,30.0,60.0,RR,59.68528812552524,
12.0,1.0,resp2,stim/right_resp_img.png,"[-0.5, 0]",right,stim/gold_coin.png,gold,,,,,training,,,gold,deval,,,,,0.0,0.0,0.0,0.0,2.0,1.0,5.0,1.0,,,,,,,,,0.0,training_resp,,334.288091253442,19.680675122510365,5.0,,right,gold,0.0,236.0,2.0,right,2023_Sep_11_1349,habits_v_MRI,5.0,40.0,1.0,5.0,30.0,15.0,5.0,15.0,30.0,30.0,60.0,RR,59.68528812552524,
12.0,1.0,resp2,stim/right_resp_img.png,"[-0.5, 0]",right,stim/gold_coin.png,gold,,,,,training,,,gold,deval,,,,,0.0,0.0,0.0,0.0,2.0,1.0,5.0,1.0,,,,,,,,,0.0,training_resp,,335.0706429446345,20.46355114370272,5.0,,right,gold,0.0,236.0,2.0,right,2023_Sep_11_1349,habits_v_MRI,5.0,40.0,1.0,5.0,30.0,15.0,5.0,15.0,30.0,30.0,60.0,RR,59.68528812552524,
12.0,1.0,resp2,stim/right_resp_img.png,"[-0.5, 0]",right,stim/gold_coin.png,gold,,,,,training,,,gold,deval,,,,,0.0,0.0,0.0,0.0,2.0,1.0,5.0,1.0,,,,,,,,,0.0,training_resp,,335.8542248087815,21.246857649921367,5.0,,right,gold,0.0,236.0,2.0,right,2023_Sep_11_1349,habits_v_MRI,5.0,40.0,1.0,5.0,30.0,15.0,5.0,15.0,30.0,30.0,60.0,RR,59.68528812552524,
12.0,1.0,resp2,stim/right_resp_img.png,"[-0.5, 0]",right,stim/gold_coin.png,gold,,,,,training,,,gold,deval,,,,,0.0,0.0,0.0,0.0,2.0,1.0,5.0,1.0,,,,,,,,,0.0,training_resp,,336.60388691615844,21.996775467749103,5.0,,right,gold,0.0,236.0,2.0,right,2023_Sep_11_1349,habits_v_MRI,5.0,40.0,1.0,5.0,30.0,15.0,5.0,15.0,30.0,30.0,60.0,RR,59.68528812552524,
12.0,1.0,resp2,stim/right_resp_img.png,"[-0.5, 0]",right,stim/gold_coin.png,gold,,,,,training,,,gold,deval,,,,,0.0,0.0,0.0,0.0,2.0,1.0,5.0,1.0,,,,,,,,,0.0,training_resp,,337.28735696563126,22.68010358619358,5.0,14.0,right,gold,1.0,236.0,2.0,right,2023_Sep_11_1349,habits_v_MRI,5.0,40.0,1.0,5.0,30.0,15.0,5.0,15.0,30.0,30.0,60.0,RR,59.68528812552524,
12.0,1.0,resp2,stim/right_resp_img.png,"[-0.5, 0]",right,stim/gold_coin.png,gold,,,,,training,,,gold,deval,,,,,0.0,0.0,0.0,0.0,2.0,1.0,5.0,1.0,,,,,,,,,0.0,training_resp,,338.00376087905715,23.396688432358133,5.0,,right,gold,0.0,236.0,2.0,right,2023_Sep_11_1349,habits_v_MRI,5.0,40.0,1.0,5.0,30.0,15.0,5.0,15.0,30.0,30.0,60.0,RR,59.68528812552524,
12.0,1.0,resp2,stim/right_resp_img.png,"[-0.5, 0]",right,stim/gold_coin.png,gold,,,,,training,,,gold,deval,,,,,0.0,0.0,0.0,0.0,2.0,1.0,5.0,1.0,,,,,,,,,0.0,training_resp,,338.8041301929825,24.19699939034217,5.0,,right,gold,0.0,236.0,2.0,right,2023_Sep_11_1349,habits_v_MRI,5.0,40.0,1.0,5.0,30.0,15.0,5.0,15.0,30.0,30.0,60.0,RR,59.68528812552524,
12.0,1.0,resp2,stim/right_resp_img.png,"[-0.5, 0]",right,stim/gold_coin.png,gold,,,,,training,,,gold,deval,,,,,0.0,0.0,0.0,0.0,2.0,1.0,5.0,1.0,,,,,,,,,0.0,training_resp,,339.58726192462564,24.98003699004221,5.0,,right,gold,0.0,236.0,2.0,right,2023_Sep_11_1349,habits_v_MRI,5.0,40.0,1.0,5.0,30.0,15.0,5.0,15.0,30.0,30.0,60.0,RR,59.68528812552524,
12.0,1.0,resp2,stim/right_resp_img.png,"[-0.5, 0]",right,stim/gold_coin.png,gold,,,,,training,,,gold,deval,,,,,0.0,0.0,0.0,0.0,2.0,1.0,5.0,1.0,,,,,,,,,0.0,training_resp,,340.37035729377385,25.76320009899973,5.0,,right,gold,0.0,236.0,2.0,right,2023_Sep_11_1349,habits_v_MRI,5.0,40.0,1.0,5.0,30.0,15.0,5.0,15.0,30.0,30.0,60.0,RR,59.68528812552524,
12.0,1.0,resp2,stim/right_resp_img.png,"[-0.5, 0]",right,stim/gold_coin.png,gold,,,,,training,,,gold,deval,,,,,0.0,0.0,0.0,0.0,2.0,1.0,5.0,1.0,,,,,,,,,0.0,training_resp,,341.2203218256782,26.613134719820664,5.0,,right,gold,0.0,236.0,2.0,right,2023_Sep_11_1349,habits_v_MRI,5.0,40.0,1.0,5.0,30.0,15.0,5.0,15.0,30.0,30.0,60.0,RR,59.68528812552524,
12.0,1.0,resp2,stim/right_resp_img.png,"[-0.5, 0]",right,stim/gold_coin.png,gold,,,,,training,,,gold,deval,,,,,0.0,0.0,0.0,0.0,2.0,1.0,5.0,1.0,,,,,,,,,0.0,training_resp,,342.8532380362267,28.246269691831912,5.0,,right,gold,0.0,236.0,2.0,right,2023_Sep_11_1349,habits_v_MRI,5.0,40.0,1.0,5.0,30.0,15.0,5.0,15.0,30.0,30.0,60.0,RR,59.68528812552524,
12.0,1.0,resp2,stim/right_resp_img.png,"[-0.5, 0]",right,stim/gold_coin.png,gold,,,,,training,,,gold,deval,,,,,0.0,0.0,0.0,0.0,2.0,1.0,5.0,1.0,,,,,,,,,0.0,training_resp,,343.753333546425,29.14628221343264,5.0,,right,gold,0.0,236.0,2.0,right,2023_Sep_11_1349,habits_v_MRI,5.0,40.0,1.0,5.0,30.0,15.0,5.0,15.0,30.0,30.0,60.0,RR,59.68528812552524,
12.0,1.0,resp2,stim/right_resp_img.png,"[-0.5, 0]",right,stim/gold_coin.png,gold,,,,,training,,,gold,deval,,,,,0.0,0.0,0.0,0.0,2.0,1.0,5.0,1.0,,,,,,,,,0.0,training_resp,,344.670260200046,30.0630792523516,5.0,,right,gold,0.0,236.0,2.0,right,2023_Sep_11_1349,habits_v_MRI,5.0,40.0,1.0,5.0,30.0,15.0,5.0,15.0,30.0,30.0,60.0,RR,59.68528812552524,
12.0,1.0,resp2,stim/right_resp_img.png,"[-0.5, 0]",right,stim/gold_coin.png,gold,,,,,training,,,gold,deval,,,,,0.0,0.0,0.0,0.0,2.0,1.0,5.0,1.0,,,,,,,,,0.0,training_resp,,345.503396227743,30.89620648267009,5.0,,right,gold,0.0,236.0,2.0,right,2023_Sep_11_1349,habits_v_MRI,5.0,40.0,1.0,5.0,30.0,15.0,5.0,15.0,30.0,30.0,60.0,RR,59.68528812552524,
12.0,1.0,resp2,stim/right_resp_img.png,"[-0.5, 0]",right,stim/gold_coin.png,gold,,,,,training,,,gold,deval,,,,,0.0,0.0,0.0,0.0,2.0,1.0,5.0,1.0,,,,,,,,,0.0,training_resp,,346.3032966414248,31.69615645491467,5.0,,right,gold,0.0,236.0,2.0,right,2023_Sep_11_1349,habits_v_MRI,5.0,40.0,1.0,5.0,30.0,15.0,5.0,15.0,30.0,30.0,60.0,RR,59.68528812552524,
12.0,1.0,resp2,stim/right_resp_img.png,"[-0.5, 0]",right,stim/gold_coin.png,gold,,,,,training,,,gold,deval,,,,,0.0,0.0,0.0,0.0,2.0,1.0,5.0,1.0,,,,,,,,,0.0,training_resp,,347.736488620445,33.12935811105126,5.0,,right,gold,0.0,236.0,2.0,right,2023_Sep_11_1349,habits_v_MRI,5.0,40.0,1.0,5.0,30.0,15.0,5.0,15.0,30.0,30.0,60.0,RR,59.68528812552524,
12.0,1.0,resp2,stim/right_resp_img.png,"[-0.5, 0]",right,stim/gold_coin.png,gold,,,,,training,,,gold,deval,,,,,0.0,0.0,0.0,0.0,2.0,1.0,5.0,1.0,,,,,,,,,0.0,training_resp,,348.5532568332892,33.94604773398714,5.0,,right,gold,0.0,236.0,2.0,right,2023_Sep_11_1349,habits_v_MRI,5.0,40.0,1.0,5.0,30.0,15.0,5.0,15.0,30.0,30.0,60.0,RR,59.68528812552524,
12.0,1.0,resp2,stim/right_resp_img.png,"[-0.5, 0]",right,stim/gold_coin.png,gold,,,,,training,,,gold,deval,,,,,0.0,0.0,0.0,0.0,2.0,1.0,5.0,1.0,,,,,,,,,0.0,training_resp,,349.3697103932518,34.76264615743821,5.0,,right,gold,0.0,236.0,2.0,right,2023_Sep_11_1349,habits_v_MRI,5.0,40.0,1.0,5.0,30.0,15.0,5.0,15.0,30.0,30.0,60.0,RR,59.68528812552524,
12.0,1.0,resp2,stim/right_resp_img.png,"[-0.5, 0]",right,stim/gold_coin.png,gold,,,,,training,,,gold,deval,,,,,0.0,0.0,0.0,0.0,2.0,1.0,5.0,1.0,,,,,,,,,0.0,training_resp,,350.1696764940225,35.562556248234614,5.0,14.0,right,gold,1.0,236.0,2.0,right,2023_Sep_11_1349,habits_v_MRI,5.0,40.0,1.0,5.0,30.0,15.0,5.0,15.0,30.0,30.0,60.0,RR,59.68528812552524,
12.0,1.0,resp2,stim/right_resp_img.png,"[-0.5, 0]",right,stim/gold_coin.png,gold,,,,,training,,,gold,deval,,,,,0.0,0.0,0.0,0.0,2.0,1.0,5.0,1.0,,,,,,,,,0.0,training_resp,,350.96958277262274,36.3625205895296,5.0,,right,gold,0.0,236.0,2.0,right,2023_Sep_11_1349,habits_v_MRI,5.0,40.0,1.0,5.0,30.0,15.0,5.0,15.0,30.0,30.0,60.0,RR,59.68528812552524,
12.0,1.0,resp2,stim/right_resp_img.png,"[-0.5, 0]",right,stim/gold_coin.png,gold,,,,,training,,,gold,deval,,,,,0.0,0.0,0.0,0.0,2.0,1.0,5.0,1.0,,,,,,,,,0.0,ITI_start,25.0,351.78730784693835,37.17917238374139,,,,,,236.0,2.0,right,2023_Sep_11_1349,habits_v_MRI,5.0,40.0,1.0,5.0,30.0,15.0,5.0,15.0,30.0,30.0,60.0,RR,59.68528812552524,
12.0,0.0,resp1,stim/left_resp_img.png,"[0.5, 0]",left,stim/silver_coin.png,gold,,,,,training,,,silver,val,,,,,0.0,0.0,0.0,0.0,3.0,0.0,6.0,0.0,,,,,,,,,0.0,training_period_start,52.5,376.8146644665394,0.0,6.0,18.0,,,,236.0,2.0,right,2023_Sep_11_1349,habits_v_MRI,5.0,40.0,1.0,5.0,30.0,15.0,5.0,15.0,30.0,30.0,60.0,RR,59.68528812552524,
12.0,0.0,resp1,stim/left_resp_img.png,"[0.5, 0]",left,stim/silver_coin.png,gold,,,,,training,,,silver,val,,,,,0.0,0.0,0.0,0.0,3.0,0.0,6.0,0.0,,,,,,,,,0.0,training_resp,,377.6848544635104,0.8822494426131016,6.0,,left,silver,0.0,236.0,2.0,right,2023_Sep_11_1349,habits_v_MRI,5.0,40.0,1.0,5.0,30.0,15.0,5.0,15.0,30.0,30.0,60.0,RR,59.68528812552524,
12.0,0.0,resp1,stim/left_resp_img.png,"[0.5, 0]",left,stim/silver_coin.png,gold,,,,,training,,,silver,val,,,,,0.0,0.0,0.0,0.0,3.0,0.0,6.0,0.0,,,,,,,,,0.0,training_resp,,378.4012390227053,1.5988322360553866,6.0,,left,silver,0.0,236.0,2.0,right,2023_Sep_11_1349,habits_v_MRI,5.0,40.0,1.0,5.0,30.0,15.0,5.0,15.0,30.0,30.0,60.0,RR,59.68528812552524,
12.0,0.0,resp1,stim/left_resp_img.png,"[0.5, 0]",left,stim/silver_coin.png,gold,,,,,training,,,silver,val,,,,,0.0,0.0,0.0,0.0,3.0,0.0,6.0,0.0,,,,,,,,,0.0,training_resp,,379.15119378952113,2.3487465349317063,6.0,,left,silver,0.0,236.0,2.0,right,2023_Sep_11_1349,habits_v_MRI,5.0,40.0,1.0,5.0,30.0,15.0,5.0,15.0,30.0,30.0,60.0,RR,59.68528812552524,
12.0,0.0,resp1,stim/left_resp_img.png,"[0.5, 0]",left,stim/silver_coin.png,gold,,,,,training,,,silver,val,,,,,0.0,0.0,0.0,0.0,3.0,0.0,6.0,0.0,,,,,,,,,0.0,training_resp,,380.03450683512347,3.232039933058332,6.0,,left,silver,0.0,236.0,2.0,right,2023_Sep_11_1349,habits_v_MRI,5.0,40.0,1.0,5.0,30.0,15.0,5.0,15.0,30.0,30.0,60.0,RR,59.68528812552524,
12.0,0.0,resp1,stim/left_resp_img.png,"[0.5, 0]",left,stim/silver_coin.png,gold,,,,,training,,,silver,val,,,,,0.0,0.0,0.0,0.0,3.0,0.0,6.0,0.0,,,,,,,,,0.0,training_resp,,380.63442994603975,3.832031370277036,6.0,,left,silver,0.0,236.0,2.0,right,2023_Sep_11_1349,habits_v_MRI,5.0,40.0,1.0,5.0,30.0,15.0,5.0,15.0,30.0,30.0,60.0,RR,59.68528812552524,
12.0,0.0,resp1,stim/left_resp_img.png,"[0.5, 0]",left,stim/silver_coin.png,gold,,,,,training,,,silver,val,,,,,0.0,0.0,0.0,0.0,3.0,0.0,6.0,0.0,,,,,,,,,0.0,training_resp,,381.26787136004896,4.465307980071884,6.0,,left,silver,0.0,236.0,2.0,right,2023_Sep_11_1349,habits_v_MRI,5.0,40.0,1.0,5.0,30.0,15.0,5.0,15.0,30.0,30.0,60.0,RR,59.68528812552524,
12.0,0.0,resp1,stim/left_resp_img.png,"[0.5, 0]",left,stim/silver_coin.png,gold,,,,,training,,,silver,val,,,,,0.0,0.0,0.0,0.0,3.0,0.0,6.0,0.0,,,,,,,,,0.0,training_resp,,381.9009863913361,5.098593680491831,6.0,,left,silver,0.0,236.0,2.0,right,2023_Sep_11_1349,habits_v_MRI,5.0,40.0,1.0,5.0,30.0,15.0,5.0,15.0,30.0,30.0,60.0,RR,59.68528812552524,
12.0,0.0,resp1,stim/left_resp_img.png,"[0.5, 0]",left,stim/silver_coin.png,gold,,,,,training,,,silver,val,,,,,0.0,0.0,0.0,0.0,3.0,0.0,6.0,0.0,,,,,,,,,0.0,training_resp,,382.55094752158766,5.748582375859769,6.0,,left,silver,0.0,236.0,2.0,right,2023_Sep_11_1349,habits_v_MRI,5.0,40.0,1.0,5.0,30.0,15.0,5.0,15.0,30.0,30.0,60.0,RR,59.68528812552524,
12.0,0.0,resp1,stim/left_resp_img.png,"[0.5, 0]",left,stim/silver_coin.png,gold,,,,,training,,,silver,val,,,,,0.0,0.0,0.0,0.0,3.0,0.0,6.0,0.0,,,,,,,,,0.0,training_resp,,383.20099369315903,6.398501571944507,6.0,,left,silver,0.0,236.0,2.0,right,2023_Sep_11_1349,habits_v_MRI,5.0,40.0,1.0,5.0,30.0,15.0,5.0,15.0,30.0,30.0,60.0,RR,59.68528812552524,
12.0,0.0,resp1,stim/left_resp_img.png,"[0.5, 0]",left,stim/silver_coin.png,gold,,,,,training,,,silver,val,,,,,0.0,0.0,0.0,0.0,3.0,0.0,6.0,0.0,,,,,,,,,0.0,training_resp,,383.8514759214304,7.048892014237936,6.0,,left,silver,0.0,236.0,2.0,right,2023_Sep_11_1349,habits_v_MRI,5.0,40.0,1.0,5.0,30.0,15.0,5.0,15.0,30.0,30.0,60.0,RR,59.68528812552524,
12.0,0.0,resp1,stim/left_resp_img.png,"[0.5, 0]",left,stim/silver_coin.png,gold,,,,,training,,,silver,val,,,,,0.0,0.0,0.0,0.0,3.0,0.0,6.0,0.0,,,,,,,,,0.0,training_resp,,384.4841223457206,7.681746643140286,6.0,,left,silver,0.0,236.0,2.0,right,2023_Sep_11_1349,habits_v_MRI,5.0,40.0,1.0,5.0,30.0,15.0,5.0,15.0,30.0,30.0,60.0,RR,59.68528812552524,
12.0,0.0,resp1,stim/left_resp_img.png,"[0.5, 0]",left,stim/silver_coin.png,gold,,,,,training,,,silver,val,,,,,0.0,0.0,0.0,0.0,3.0,0.0,6.0,0.0,,,,,,,,,0.0,training_resp,,385.16755573945375,8.365080333256628,6.0,,left,silver,0.0,236.0,2.0,right,2023_Sep_11_1349,habits_v_MRI,5.0,40.0,1.0,5.0,30.0,15.0,5.0,15.0,30.0,30.0,60.0,RR,59.68528812552524,
12.0,0.0,resp1,stim/left_resp_img.png,"[0.5, 0]",left,stim/silver_coin.png,gold,,,,,training,,,silver,val,,,,,0.0,0.0,0.0,0.0,3.0,0.0,6.0,0.0,,,,,,,,,0.0,training_resp,,385.83408203906765,9.031689621469924,6.0,,left,silver,0.0,236.0,2.0,right,2023_Sep_11_1349,habits_v_MRI,5.0,40.0,1.0,5.0,30.0,15.0,5.0,15.0,30.0,30.0,60.0,RR,59.68528812552524,
12.0,0.0,resp1,stim/left_resp_img.png,"[0.5, 0]",left,stim/silver_coin.png,gold,,,,,training,,,silver,val,,,,,0.0,0.0,0.0,0.0,3.0,0.0,6.0,0.0,,,,,,,,,0.0,training_resp,,386.450913123841,9.648360007471638,6.0,,left,silver,0.0,236.0,2.0,right,2023_Sep_11_1349,habits_v_MRI,5.0,40.0,1.0,5.0,30.0,15.0,5.0,15.0,30.0,30.0,60.0,RR,59.68528812552524,
12.0,0.0,resp1,stim/left_resp_img.png,"[0.5, 0]",left,stim/silver_coin.png,gold,,,,,training,,,silver,val,,,,,0.0,0.0,0.0,0.0,3.0,0.0,6.0,0.0,,,,,,,,,0.0,training_resp,,387.0840255159146,10.281621954971342,6.0,,left,silver,0.0,236.0,2.0,right,2023_Sep_11_1349,habits_v_MRI,5.0,40.0,1.0,5.0,30.0,15.0,5.0,15.0,30.0,30.0,60.0,RR,59.68528812552524,
12.0,0.0,resp1,stim/left_resp_img.png,"[0.5, 0]",left,stim/silver_coin.png,gold,,,,,training,,,silver,val,,,,,0.0,0.0,0.0,0.0,3.0,0.0,6.0,0.0,,,,,,,,,0.0,training_resp,,387.6674611676408,10.864942654292465,6.0,,left,silver,0.0,236.0,2.0,right,2023_Sep_11_1349,habits_v_MRI,5.0,40.0,1.0,5.0,30.0,15.0,5.0,15.0,30.0,30.0,60.0,RR,59.68528812552524,
12.0,0.0,resp1,stim/left_resp_img.png,"[0.5, 0]",left,stim/silver_coin.png,gold,,,,,training,,,silver,val,,,,,0.0,0.0,0.0,0.0,3.0,0.0,6.0,0.0,,,,,,,,,0.0,training_resp,,388.300835428332,11.498275567306337,6.0,,left,silver,0.0,236.0,2.0,right,2023_Sep_11_1349,habits_v_MRI,5.0,40.0,1.0,5.0,30.0,15.0,5.0,15.0,30.0,30.0,60.0,RR,59.68528812552524,
12.0,0.0,resp1,stim/left_resp_img.png,"[0.5, 0]",left,stim/silver_coin.png,gold,,,,,training,,,silver,val,,,,,0.0,0.0,0.0,0.0,3.0,0.0,6.0,0.0,,,,,,,,,0.0,training_resp,,389.0173281952739,12.214907626064814,6.0,16.0,left,silver,1.0,236.0,2.0,right,2023_Sep_11_1349,habits_v_MRI,5.0,40.0,1.0,5.0,30.0,15.0,5.0,15.0,30.0,30.0,60.0,RR,59.68528812552524,
12.0,0.0,resp1,stim/left_resp_img.png,"[0.5, 0]",left,stim/silver_coin.png,gold,,,,,training,,,silver,val,,,,,0.0,0.0,0.0,0.0,3.0,0.0,6.0,0.0,,,,,,,,,0.0,training_resp,,389.633915592678,12.831442239201351,6.0,,left,silver,0.0,236.0,2.0,right,2023_Sep_11_1349,habits_v_MRI,5.0,40.0,1.0,5.0,30.0,15.0,5.0,15.0,30.0,30.0,60.0,RR,59.68528812552524,
12.0,0.0,resp1,stim/left_resp_img.png,"[0.5, 0]",left,stim/silver_coin.png,gold,,,,,training,,,silver,val,,,,,0.0,0.0,0.0,0.0,3.0,0.0,6.0,0.0,,,,,,,,,0.0,training_resp,,390.3506907554511,13.548113006423591,6.0,,left,silver,0.0,236.0,2.0,right,2023_Sep_11_1349,habits_v_MRI,5.0,40.0,1.0,5.0,30.0,15.0,5.0,15.0,30.0,30.0,60.0,RR,59.68528812552524,
12.0,0.0,resp1,stim/left_resp_img.png,"[0.5, 0]",left,stim/silver_coin.png,gold,,,,,training,,,silver,val,,,,,0.0,0.0,0.0,0.0,3.0,0.0,6.0,0.0,,,,,,,,,0.0,training_resp,,391.1170787309602,14.3146819146732,6.0,,left,silver,0.0,236.0,2.0,right,2023_Sep_11_1349,habits_v_MRI,5.0,40.0,1.0,5.0,30.0,15.0,5.0,15.0,30.0,30.0,60.0,RR,59.68528812552524,
12.0,0.0,resp1,stim/left_resp_img.png,"[0.5, 0]",left,stim/silver_coin.png,gold,,,,,training,,,silver,val,,,,,0.0,0.0,0.0,0.0,3.0,0.0,6.0,0.0,,,,,,,,,0.0,training_resp,,391.8170573533316,15.014671387143608,6.0,,left,silver,0.0,236.0,2.0,right,2023_Sep_11_1349,habits_v_MRI,5.0,40.0,1.0,5.0,30.0,15.0,5.0,15.0,30.0,30.0,60.0,RR,59.68528812552524,
12.0,0.0,resp1,stim/left_resp_img.png,"[0.5, 0]",left,stim/silver_coin.png,gold,,,,,training,,,silver,val,,,,,0.0,0.0,0.0,0.0,3.0,0.0,6.0,0.0,,,,,,,,,0.0,training_resp,,392.666983176774,15.864575217141464,6.0,,left,silver,0.0,236.0,2.0,right,2023_Sep_11_1349,habits_v_MRI,5.0,40.0,1.0,5.0,30.0,15.0,5.0,15.0,30.0,30.0,60.0,RR,59.68528812552524,
12.0,0.0,resp1,stim/left_resp_img.png,"[0.5, 0]",left,stim/silver_coin.png,gold,,,,,training,,,silver,val,,,,,0.0,0.0,0.0,0.0,3.0,0.0,6.0,0.0,,,,,,,,,0.0,training_resp,,393.3504972131377,16.547933539915903,6.0,,left,silver,0.0,236.0,2.0,right,2023_Sep_11_1349,habits_v_MRI,5.0,40.0,1.0,5.0,30.0,15.0,5.0,15.0,30.0,30.0,60.0,RR,59.68528812552524,
12.0,0.0,resp1,stim/left_resp_img.png,"[0.5, 0]",left,stim/silver_coin.png,gold,,,,,training,,,silver,val,,,,,0.0,0.0,0.0,0.0,3.0,0.0,6.0,0.0,,,,,,,,,0.0,training_resp,,394.05039050094274,17.24787785251283,6.0,,left,silver,0.0,236.0,2.0,right,2023_Sep_11_1349,habits_v_MRI,5.0,40.0,1.0,5.0,30.0,15.0,5.0,15.0,30.0,30.0,60.0,RR,59.68528812552524,
12.0,0.0,resp1,stim/left_resp_img.png,"[0.5, 0]",left,stim/silver_coin.png,gold,,,,,training,,,silver,val,,,,,0.0,0.0,0.0,0.0,3.0,0.0,6.0,0.0,,,,,,,,,0.0,training_resp,,394.66694446831207,17.864500146182763,6.0,,left,silver,0.0,236.0,2.0,right,2023_Sep_11_1349,habits_v_MRI,5.0,40.0,1.0,5.0,30.0,15.0,5.0,15.0,30.0,30.0,60.0,RR,59.68528812552524,
