list,trial_num_python,condition,stimulus,position,corrResp,coin_img,devalued_coin,stimulus_choice1,stimulus_choice2,position1,position2,phase,corrResp1,corrResp2,outcome,cond_val,outcome_choice1,outcome_choice2,cond_val1,cond_val2,blockLoop.thisRepN,blockLoop.thisTrialN,blockLoop.thisN,blockLoop.thisIndex,trialLoop.thisRepN,trialLoop.thisTrialN,trialLoop.thisN,trialLoop.thisIndex,choice_trialLoop.thisRepN,choice_trialLoop.thisTrialN,choice_trialLoop.thisN,choice_trialLoop.thisIndex,contingency_trialLoop.thisRepN,contingency_trialLoop.thisTrialN,contingency_trialLoop.thisN,contingency_trialLoop.thisIndex,run,event,duration,globalClock_t,routineClock_t,trial,nResp_untilRnf,resp,selected_coin,wasRnf,participant,task_ordering,hand,date,expName,n_repeat_training,credits_per_rnf,cost_response,min_resp_bet_rnf,max_resp_bet_rnf,mean_resp_bet_rnf,sigma_resp_bet_rnf,min_ITI,max_ITI,min_trial_duration,max_trial_duration,schedule,frameRate,Unnamed: 65
25.0,0.0,resp1,stim/right_resp_img.png,"[-0.5, 0]",right,stim/silver_coin.png,silver,,,,,training,,,silver,deval,,,,,0.0,0.0,0.0,0.0,0.0,0.0,0.0,0.0,,,,,,,,,0.0,instr_before_block,6.0,0.0057000826345756,,,,,,,121.0,1.0,right,2022_Jun_17_1427,habits_v_MRI,5.0,40.0,1.0,5.0,30.0,15.0,5.0,15.0,30.0,30.0,60.0,RR,60.09742120820547,
25.0,0.0,resp1,stim/right_resp_img.png,"[-0.5, 0]",right,stim/silver_coin.png,silver,,,,,training,,,silver,deval,,,,,0.0,0.0,0.0,0.0,0.0,0.0,0.0,0.0,,,,,,,,,0.0,training_period_start,37.5,6.040406718093436,0.0,0.0,14.0,,,,121.0,1.0,right,2022_Jun_17_1427,habits_v_MRI,5.0,40.0,1.0,5.0,30.0,15.0,5.0,15.0,30.0,30.0,60.0,RR,60.09742120820547,
25.0,0.0,resp1,stim/right_resp_img.png,"[-0.5, 0]",right,stim/silver_coin.png,silver,,,,,training,,,silver,deval,,,,,0.0,0.0,0.0,0.0,0.0,0.0,0.0,0.0,,,,,,,,,0.0,training_resp,,8.768889184750151,2.748635387630202,0.0,,left,,,121.0,1.0,right,2022_Jun_17_1427,habits_v_MRI,5.0,40.0,1.0,5.0,30.0,15.0,5.0,15.0,30.0,30.0,60.0,RR,60.09742120820547,
25.0,0.0,resp1,stim/right_resp_img.png,"[-0.5, 0]",right,stim/silver_coin.png,silver,,,,,training,,,silver,deval,,,,,0.0,0.0,0.0,0.0,0.0,0.0,0.0,0.0,,,,,,,,,0.0,training_resp,,10.318450110033154,4.298532664135564,0.0,,left,,,121.0,1.0,right,2022_Jun_17_1427,habits_v_MRI,5.0,40.0,1.0,5.0,30.0,15.0,5.0,15.0,30.0,30.0,60.0,RR,60.09742120820547,
25.0,0.0,resp1,stim/right_resp_img.png,"[-0.5, 0]",right,stim/silver_coin.png,silver,,,,,training,,,silver,deval,,,,,0.0,0.0,0.0,0.0,0.0,0.0,0.0,0.0,,,,,,,,,0.0,training_resp,,10.368437119293958,4.348534335673321,0.0,,left,,,121.0,1.0,right,2022_Jun_17_1427,habits_v_MRI,5.0,40.0,1.0,5.0,30.0,15.0,5.0,15.0,30.0,30.0,60.0,RR,60.09742120820547,
25.0,0.0,resp1,stim/right_resp_img.png,"[-0.5, 0]",right,stim/silver_coin.png,silver,,,,,training,,,silver,deval,,,,,0.0,0.0,0.0,0.0,0.0,0.0,0.0,0.0,,,,,,,,,0.0,training_resp,,11.185211044969035,5.165212956897449,0.0,,left,,,121.0,1.0,right,2022_Jun_17_1427,habits_v_MRI,5.0,40.0,1.0,5.0,30.0,15.0,5.0,15.0,30.0,30.0,60.0,RR,60.09742120820547,
25.0,0.0,resp1,stim/right_resp_img.png,"[-0.5, 0]",right,stim/silver_coin.png,silver,,,,,training,,,silver,deval,,,,,0.0,0.0,0.0,0.0,0.0,0.0,0.0,0.0,,,,,,,,,0.0,training_resp,,12.751720610889606,6.731687626743224,0.0,,left,,,121.0,1.0,right,2022_Jun_17_1427,habits_v_MRI,5.0,40.0,1.0,5.0,30.0,15.0,5.0,15.0,30.0,30.0,60.0,RR,60.09742120820547,
25.0,0.0,resp1,stim/right_resp_img.png,"[-0.5, 0]",right,stim/silver_coin.png,silver,,,,,training,,,silver,deval,,,,,0.0,0.0,0.0,0.0,0.0,0.0,0.0,0.0,,,,,,,,,0.0,training_resp,,14.585118262446484,8.564898481708951,0.0,,left,,,121.0,1.0,right,2022_Jun_17_1427,habits_v_MRI,5.0,40.0,1.0,5.0,30.0,15.0,5.0,15.0,30.0,30.0,60.0,RR,60.09742120820547,
25.0,0.0,resp1,stim/right_resp_img.png,"[-0.5, 0]",right,stim/silver_coin.png,silver,,,,,training,,,silver,deval,,,,,0.0,0.0,0.0,0.0,0.0,0.0,0.0,0.0,,,,,,,,,0.0,training_resp,,14.668157129664904,8.648176929506008,0.0,,left,,,121.0,1.0,right,2022_Jun_17_1427,habits_v_MRI,5.0,40.0,1.0,5.0,30.0,15.0,5.0,15.0,30.0,30.0,60.0,RR,60.09742120820547,
25.0,0.0,resp1,stim/right_resp_img.png,"[-0.5, 0]",right,stim/silver_coin.png,silver,,,,,training,,,silver,deval,,,,,0.0,0.0,0.0,0.0,0.0,0.0,0.0,0.0,,,,,,,,,0.0,training_resp,,17.218048248032574,11.198006759863349,0.0,,left,,,121.0,1.0,right,2022_Jun_17_1427,habits_v_MRI,5.0,40.0,1.0,5.0,30.0,15.0,5.0,15.0,30.0,30.0,60.0,RR,60.09742120820547,
25.0,0.0,resp1,stim/right_resp_img.png,"[-0.5, 0]",right,stim/silver_coin.png,silver,,,,,training,,,silver,deval,,,,,0.0,0.0,0.0,0.0,0.0,0.0,0.0,0.0,,,,,,,,,0.0,training_resp,,17.267975728726014,11.247999927261844,0.0,,left,,,121.0,1.0,right,2022_Jun_17_1427,habits_v_MRI,5.0,40.0,1.0,5.0,30.0,15.0,5.0,15.0,30.0,30.0,60.0,RR,60.09742120820547,
25.0,0.0,resp1,stim/right_resp_img.png,"[-0.5, 0]",right,stim/silver_coin.png,silver,,,,,training,,,silver,deval,,,,,0.0,0.0,0.0,0.0,0.0,0.0,0.0,0.0,,,,,,,,,0.0,training_resp,,18.651392646483146,12.63125409442,0.0,,left,,,121.0,1.0,right,2022_Jun_17_1427,habits_v_MRI,5.0,40.0,1.0,5.0,30.0,15.0,5.0,15.0,30.0,30.0,60.0,RR,60.09742120820547,
25.0,0.0,resp1,stim/right_resp_img.png,"[-0.5, 0]",right,stim/silver_coin.png,silver,,,,,training,,,silver,deval,,,,,0.0,0.0,0.0,0.0,0.0,0.0,0.0,0.0,,,,,,,,,0.0,training_resp,,20.301115559937895,14.281108674535062,0.0,,right,silver,0.0,121.0,1.0,right,2022_Jun_17_1427,habits_v_MRI,5.0,40.0,1.0,5.0,30.0,15.0,5.0,15.0,30.0,30.0,60.0,RR,60.09742120820547,
25.0,0.0,resp1,stim/right_resp_img.png,"[-0.5, 0]",right,stim/silver_coin.png,silver,,,,,training,,,silver,deval,,,,,0.0,0.0,0.0,0.0,0.0,0.0,0.0,0.0,,,,,,,,,0.0,training_resp,,22.95101676590275,16.930998737283517,0.0,,right,silver,0.0,121.0,1.0,right,2022_Jun_17_1427,habits_v_MRI,5.0,40.0,1.0,5.0,30.0,15.0,5.0,15.0,30.0,30.0,60.0,RR,60.09742120820547,
25.0,0.0,resp1,stim/right_resp_img.png,"[-0.5, 0]",right,stim/silver_coin.png,silver,,,,,training,,,silver,deval,,,,,0.0,0.0,0.0,0.0,0.0,0.0,0.0,0.0,,,,,,,,,0.0,training_resp,,24.434227650228426,18.41418792150216,0.0,,right,silver,0.0,121.0,1.0,right,2022_Jun_17_1427,habits_v_MRI,5.0,40.0,1.0,5.0,30.0,15.0,5.0,15.0,30.0,30.0,60.0,RR,60.09742120820547,
25.0,0.0,resp1,stim/right_resp_img.png,"[-0.5, 0]",right,stim/silver_coin.png,silver,,,,,training,,,silver,deval,,,,,0.0,0.0,0.0,0.0,0.0,0.0,0.0,0.0,,,,,,,,,0.0,training_resp,,26.11755958577851,20.09740783768939,0.0,,right,silver,0.0,121.0,1.0,right,2022_Jun_17_1427,habits_v_MRI,5.0,40.0,1.0,5.0,30.0,15.0,5.0,15.0,30.0,30.0,60.0,RR,60.09742120820547,
25.0,0.0,resp1,stim/right_resp_img.png,"[-0.5, 0]",right,stim/silver_coin.png,silver,,,,,training,,,silver,deval,,,,,0.0,0.0,0.0,0.0,0.0,0.0,0.0,0.0,,,,,,,,,0.0,training_resp,,27.38401601579972,21.36396514379885,0.0,,right,silver,0.0,121.0,1.0,right,2022_Jun_17_1427,habits_v_MRI,5.0,40.0,1.0,5.0,30.0,15.0,5.0,15.0,30.0,30.0,60.0,RR,60.09742120820547,
25.0,0.0,resp1,stim/right_resp_img.png,"[-0.5, 0]",right,stim/silver_coin.png,silver,,,,,training,,,silver,deval,,,,,0.0,0.0,0.0,0.0,0.0,0.0,0.0,0.0,,,,,,,,,0.0,training_resp,,28.850646574341223,22.830544384545647,0.0,,right,silver,0.0,121.0,1.0,right,2022_Jun_17_1427,habits_v_MRI,5.0,40.0,1.0,5.0,30.0,15.0,5.0,15.0,30.0,30.0,60.0,RR,60.09742120820547,
25.0,0.0,resp1,stim/right_resp_img.png,"[-0.5, 0]",right,stim/silver_coin.png,silver,,,,,training,,,silver,deval,,,,,0.0,0.0,0.0,0.0,0.0,0.0,0.0,0.0,,,,,,,,,0.0,training_resp,,30.433800393308047,24.41372166306246,0.0,,right,silver,0.0,121.0,1.0,right,2022_Jun_17_1427,habits_v_MRI,5.0,40.0,1.0,5.0,30.0,15.0,5.0,15.0,30.0,30.0,60.0,RR,60.09742120820547,
25.0,0.0,resp1,stim/right_resp_img.png,"[-0.5, 0]",right,stim/silver_coin.png,silver,,,,,training,,,silver,deval,,,,,0.0,0.0,0.0,0.0,0.0,0.0,0.0,0.0,,,,,,,,,0.0,training_resp,,31.917004532937423,25.89698181237327,0.0,,right,silver,0.0,121.0,1.0,right,2022_Jun_17_1427,habits_v_MRI,5.0,40.0,1.0,5.0,30.0,15.0,5.0,15.0,30.0,30.0,60.0,RR,60.09742120820547,
25.0,0.0,resp1,stim/right_resp_img.png,"[-0.5, 0]",right,stim/silver_coin.png,silver,,,,,training,,,silver,deval,,,,,0.0,0.0,0.0,0.0,0.0,0.0,0.0,0.0,,,,,,,,,0.0,training_resp,,41.833026404259726,35.81295823084656,0.0,,right,silver,0.0,121.0,1.0,right,2022_Jun_17_1427,habits_v_MRI,5.0,40.0,1.0,5.0,30.0,15.0,5.0,15.0,30.0,30.0,60.0,RR,60.09742120820547,
25.0,0.0,resp1,stim/right_resp_img.png,"[-0.5, 0]",right,stim/silver_coin.png,silver,,,,,training,,,silver,deval,,,,,0.0,0.0,0.0,0.0,0.0,0.0,0.0,0.0,,,,,,,,,0.0,ITI_start,15.0,43.200394061685074,37.179570490901824,,,,,,121.0,1.0,right,2022_Jun_17_1427,habits_v_MRI,5.0,40.0,1.0,5.0,30.0,15.0,5.0,15.0,30.0,30.0,60.0,RR,60.09742120820547,
25.0,1.0,resp2,stim/left_resp_img.png,"[0.5, 0]",left,stim/gold_coin.png,silver,,,,,training,,,gold,val,,,,,0.0,0.0,0.0,0.0,0.0,1.0,1.0,1.0,,,,,,,,,0.0,training_period_start,37.5,58.23652234551264,0.0,1.0,24.0,,,,121.0,1.0,right,2022_Jun_17_1427,habits_v_MRI,5.0,40.0,1.0,5.0,30.0,15.0,5.0,15.0,30.0,30.0,60.0,RR,60.09742120820547,
25.0,1.0,resp2,stim/left_resp_img.png,"[0.5, 0]",left,stim/gold_coin.png,silver,,,,,training,,,gold,val,,,,,0.0,0.0,0.0,0.0,0.0,1.0,1.0,1.0,,,,,,,,,0.0,training_resp,,59.931642115232535,1.7147630322142504,1.0,,left,gold,0.0,121.0,1.0,right,2022_Jun_17_1427,habits_v_MRI,5.0,40.0,1.0,5.0,30.0,15.0,5.0,15.0,30.0,30.0,60.0,RR,60.09742120820547,
25.0,1.0,resp2,stim/left_resp_img.png,"[0.5, 0]",left,stim/gold_coin.png,silver,,,,,training,,,gold,val,,,,,0.0,0.0,0.0,0.0,0.0,1.0,1.0,1.0,,,,,,,,,0.0,training_resp,,61.71494103147416,3.498024413129315,1.0,,left,gold,0.0,121.0,1.0,right,2022_Jun_17_1427,habits_v_MRI,5.0,40.0,1.0,5.0,30.0,15.0,5.0,15.0,30.0,30.0,60.0,RR,60.09742120820547,
25.0,1.0,resp2,stim/left_resp_img.png,"[0.5, 0]",left,stim/gold_coin.png,silver,,,,,training,,,gold,val,,,,,0.0,0.0,0.0,0.0,0.0,1.0,1.0,1.0,,,,,,,,,0.0,training_resp,,65.83139684575144,7.614473482768517,1.0,,left,gold,0.0,121.0,1.0,right,2022_Jun_17_1427,habits_v_MRI,5.0,40.0,1.0,5.0,30.0,15.0,5.0,15.0,30.0,30.0,60.0,RR,60.09742120820547,
25.0,1.0,resp2,stim/left_resp_img.png,"[0.5, 0]",left,stim/gold_coin.png,silver,,,,,training,,,gold,val,,,,,0.0,0.0,0.0,0.0,0.0,1.0,1.0,1.0,,,,,,,,,0.0,training_resp,,69.23112459771801,11.014173669798764,1.0,,left,gold,0.0,121.0,1.0,right,2022_Jun_17_1427,habits_v_MRI,5.0,40.0,1.0,5.0,30.0,15.0,5.0,15.0,30.0,30.0,60.0,RR,60.09742120820547,
25.0,1.0,resp2,stim/left_resp_img.png,"[0.5, 0]",left,stim/gold_coin.png,silver,,,,,training,,,gold,val,,,,,0.0,0.0,0.0,0.0,0.0,1.0,1.0,1.0,,,,,,,,,0.0,training_resp,,71.61421308183344,13.397299982432742,1.0,,left,gold,0.0,121.0,1.0,right,2022_Jun_17_1427,habits_v_MRI,5.0,40.0,1.0,5.0,30.0,15.0,5.0,15.0,30.0,30.0,60.0,RR,60.09742120820547,
25.0,1.0,resp2,stim/left_resp_img.png,"[0.5, 0]",left,stim/gold_coin.png,silver,,,,,training,,,gold,val,,,,,0.0,0.0,0.0,0.0,0.0,1.0,1.0,1.0,,,,,,,,,0.0,training_resp,,73.91408616572153,15.697151952714194,1.0,,left,gold,0.0,121.0,1.0,right,2022_Jun_17_1427,habits_v_MRI,5.0,40.0,1.0,5.0,30.0,15.0,5.0,15.0,30.0,30.0,60.0,RR,60.09742120820547,
25.0,1.0,resp2,stim/left_resp_img.png,"[0.5, 0]",left,stim/gold_coin.png,silver,,,,,training,,,gold,val,,,,,0.0,0.0,0.0,0.0,0.0,1.0,1.0,1.0,,,,,,,,,0.0,training_resp,,75.79722772707464,17.5803342750296,1.0,,left,gold,0.0,121.0,1.0,right,2022_Jun_17_1427,habits_v_MRI,5.0,40.0,1.0,5.0,30.0,15.0,5.0,15.0,30.0,30.0,60.0,RR,60.09742120820547,
25.0,1.0,resp2,stim/left_resp_img.png,"[0.5, 0]",left,stim/gold_coin.png,silver,,,,,training,,,gold,val,,,,,0.0,0.0,0.0,0.0,0.0,1.0,1.0,1.0,,,,,,,,,0.0,training_resp,,78.64713063387899,20.43019671412185,1.0,,left,gold,0.0,121.0,1.0,right,2022_Jun_17_1427,habits_v_MRI,5.0,40.0,1.0,5.0,30.0,15.0,5.0,15.0,30.0,30.0,60.0,RR,60.09742120820547,
25.0,1.0,resp2,stim/left_resp_img.png,"[0.5, 0]",left,stim/gold_coin.png,silver,,,,,training,,,gold,val,,,,,0.0,0.0,0.0,0.0,0.0,1.0,1.0,1.0,,,,,,,,,0.0,training_resp,,81.28026207827497,23.063298834080346,1.0,,left,gold,0.0,121.0,1.0,right,2022_Jun_17_1427,habits_v_MRI,5.0,40.0,1.0,5.0,30.0,15.0,5.0,15.0,30.0,30.0,60.0,RR,60.09742120820547,
25.0,1.0,resp2,stim/left_resp_img.png,"[0.5, 0]",left,stim/gold_coin.png,silver,,,,,training,,,gold,val,,,,,0.0,0.0,0.0,0.0,0.0,1.0,1.0,1.0,,,,,,,,,0.0,training_resp,,83.34677105769515,25.129840950132348,1.0,,left,gold,0.0,121.0,1.0,right,2022_Jun_17_1427,habits_v_MRI,5.0,40.0,1.0,5.0,30.0,15.0,5.0,15.0,30.0,30.0,60.0,RR,60.09742120820547,
25.0,1.0,resp2,stim/left_resp_img.png,"[0.5, 0]",left,stim/gold_coin.png,silver,,,,,training,,,gold,val,,,,,0.0,0.0,0.0,0.0,0.0,1.0,1.0,1.0,,,,,,,,,0.0,training_resp,,86.629884057038,28.412938700756055,1.0,,left,gold,0.0,121.0,1.0,right,2022_Jun_17_1427,habits_v_MRI,5.0,40.0,1.0,5.0,30.0,15.0,5.0,15.0,30.0,30.0,60.0,RR,60.09742120820547,
25.0,1.0,resp2,stim/left_resp_img.png,"[0.5, 0]",left,stim/gold_coin.png,silver,,,,,training,,,gold,val,,,,,0.0,0.0,0.0,0.0,0.0,1.0,1.0,1.0,,,,,,,,,0.0,training_resp,,91.82956612156704,33.61257150024176,1.0,,left,gold,0.0,121.0,1.0,right,2022_Jun_17_1427,habits_v_MRI,5.0,40.0,1.0,5.0,30.0,15.0,5.0,15.0,30.0,30.0,60.0,RR,60.09742120820547,
25.0,1.0,resp2,stim/left_resp_img.png,"[0.5, 0]",left,stim/gold_coin.png,silver,,,,,training,,,gold,val,,,,,0.0,0.0,0.0,0.0,0.0,1.0,1.0,1.0,,,,,,,,,0.0,ITI_start,28.333333333333336,95.39681436988758,37.17904675658792,,,,,,121.0,1.0,right,2022_Jun_17_1427,habits_v_MRI,5.0,40.0,1.0,5.0,30.0,15.0,5.0,15.0,30.0,30.0,60.0,RR,60.09742120820547,
25.0,0.0,resp1,stim/right_resp_img.png,"[-0.5, 0]",right,stim/silver_coin.png,silver,,,,,training,,,silver,deval,,,,,0.0,0.0,0.0,0.0,1.0,0.0,2.0,0.0,,,,,,,,,0.0,training_period_start,52.5,123.76558314851718,0.0,2.0,18.0,,,,121.0,1.0,right,2022_Jun_17_1427,habits_v_MRI,5.0,40.0,1.0,5.0,30.0,15.0,5.0,15.0,30.0,30.0,60.0,RR,60.09742120820547,
25.0,0.0,resp1,stim/right_resp_img.png,"[-0.5, 0]",right,stim/silver_coin.png,silver,,,,,training,,,silver,deval,,,,,0.0,0.0,0.0,0.0,1.0,0.0,2.0,0.0,,,,,,,,,0.0,training_resp,,125.34382219304098,1.5981582498643547,2.0,,right,silver,0.0,121.0,1.0,right,2022_Jun_17_1427,habits_v_MRI,5.0,40.0,1.0,5.0,30.0,15.0,5.0,15.0,30.0,30.0,60.0,RR,60.09742120820547,
25.0,0.0,resp1,stim/right_resp_img.png,"[-0.5, 0]",right,stim/silver_coin.png,silver,,,,,training,,,silver,deval,,,,,0.0,0.0,0.0,0.0,1.0,0.0,2.0,0.0,,,,,,,,,0.0,training_resp,,127.86043125676224,4.114694588992279,2.0,,right,silver,0.0,121.0,1.0,right,2022_Jun_17_1427,habits_v_MRI,5.0,40.0,1.0,5.0,30.0,15.0,5.0,15.0,30.0,30.0,60.0,RR,60.09742120820547,
25.0,0.0,resp1,stim/right_resp_img.png,"[-0.5, 0]",right,stim/silver_coin.png,silver,,,,,training,,,silver,deval,,,,,0.0,0.0,0.0,0.0,1.0,0.0,2.0,0.0,,,,,,,,,0.0,training_resp,,129.7603663324844,6.014603859221097,2.0,,right,silver,0.0,121.0,1.0,right,2022_Jun_17_1427,habits_v_MRI,5.0,40.0,1.0,5.0,30.0,15.0,5.0,15.0,30.0,30.0,60.0,RR,60.09742120820547,
25.0,0.0,resp1,stim/right_resp_img.png,"[-0.5, 0]",right,stim/silver_coin.png,silver,,,,,training,,,silver,deval,,,,,0.0,0.0,0.0,0.0,1.0,0.0,2.0,0.0,,,,,,,,,0.0,training_resp,,131.4767339975224,7.731080024619587,2.0,,right,silver,0.0,121.0,1.0,right,2022_Jun_17_1427,habits_v_MRI,5.0,40.0,1.0,5.0,30.0,15.0,5.0,15.0,30.0,30.0,60.0,RR,60.09742120820547,
25.0,0.0,resp1,stim/right_resp_img.png,"[-0.5, 0]",right,stim/silver_coin.png,silver,,,,,training,,,silver,deval,,,,,0.0,0.0,0.0,0.0,1.0,0.0,2.0,0.0,,,,,,,,,0.0,training_resp,,137.45980089885416,13.713998251070734,2.0,,right,silver,0.0,121.0,1.0,right,2022_Jun_17_1427,habits_v_MRI,5.0,40.0,1.0,5.0,30.0,15.0,5.0,15.0,30.0,30.0,60.0,RR,60.09742120820547,
25.0,0.0,resp1,stim/right_resp_img.png,"[-0.5, 0]",right,stim/silver_coin.png,silver,,,,,training,,,silver,deval,,,,,0.0,0.0,0.0,0.0,1.0,0.0,2.0,0.0,,,,,,,,,0.0,training_resp,,141.82615627691848,18.080411691509653,2.0,,right,silver,0.0,121.0,1.0,right,2022_Jun_17_1427,habits_v_MRI,5.0,40.0,1.0,5.0,30.0,15.0,5.0,15.0,30.0,30.0,60.0,RR,60.09742120820547,
25.0,0.0,resp1,stim/right_resp_img.png,"[-0.5, 0]",right,stim/silver_coin.png,silver,,,,,training,,,silver,deval,,,,,0.0,0.0,0.0,0.0,1.0,0.0,2.0,0.0,,,,,,,,,0.0,training_resp,,153.4423393739271,29.696226473723076,2.0,,right,silver,0.0,121.0,1.0,right,2022_Jun_17_1427,habits_v_MRI,5.0,40.0,1.0,5.0,30.0,15.0,5.0,15.0,30.0,30.0,60.0,RR,60.09742120820547,
25.0,0.0,resp1,stim/right_resp_img.png,"[-0.5, 0]",right,stim/silver_coin.png,silver,,,,,training,,,silver,deval,,,,,0.0,0.0,0.0,0.0,1.0,0.0,2.0,0.0,,,,,,,,,0.0,training_resp,,157.25846493645804,33.51274527685018,2.0,,right,silver,0.0,121.0,1.0,right,2022_Jun_17_1427,habits_v_MRI,5.0,40.0,1.0,5.0,30.0,15.0,5.0,15.0,30.0,30.0,60.0,RR,60.09742120820547,
25.0,0.0,resp1,stim/right_resp_img.png,"[-0.5, 0]",right,stim/silver_coin.png,silver,,,,,training,,,silver,deval,,,,,0.0,0.0,0.0,0.0,1.0,0.0,2.0,0.0,,,,,,,,,0.0,training_resp,,165.52455129224109,41.7787697580643,2.0,,right,silver,0.0,121.0,1.0,right,2022_Jun_17_1427,habits_v_MRI,5.0,40.0,1.0,5.0,30.0,15.0,5.0,15.0,30.0,30.0,60.0,RR,60.09742120820547,
25.0,0.0,resp1,stim/right_resp_img.png,"[-0.5, 0]",right,stim/silver_coin.png,silver,,,,,training,,,silver,deval,,,,,0.0,0.0,0.0,0.0,1.0,0.0,2.0,0.0,,,,,,,,,0.0,training_resp,,174.77384354709648,51.02814588084584,2.0,,right,silver,0.0,121.0,1.0,right,2022_Jun_17_1427,habits_v_MRI,5.0,40.0,1.0,5.0,30.0,15.0,5.0,15.0,30.0,30.0,60.0,RR,60.09742120820547,
25.0,0.0,resp1,stim/right_resp_img.png,"[-0.5, 0]",right,stim/silver_coin.png,silver,,,,,training,,,silver,deval,,,,,0.0,0.0,0.0,0.0,1.0,0.0,2.0,0.0,,,,,,,,,0.0,ITI_start,20.0,175.9244497123873,52.17803594353609,,,,,,121.0,1.0,right,2022_Jun_17_1427,habits_v_MRI,5.0,40.0,1.0,5.0,30.0,15.0,5.0,15.0,30.0,30.0,60.0,RR,60.09742120820547,
25.0,1.0,resp2,stim/left_resp_img.png,"[0.5, 0]",left,stim/gold_coin.png,silver,,,,,training,,,gold,val,,,,,0.0,0.0,0.0,0.0,1.0,1.0,3.0,1.0,,,,,,,,,0.0,training_period_start,60.0,195.96035747649148,0.0,3.0,5.0,,,,121.0,1.0,right,2022_Jun_17_1427,habits_v_MRI,5.0,40.0,1.0,5.0,30.0,15.0,5.0,15.0,30.0,30.0,60.0,RR,60.09742120820547,
25.0,1.0,resp2,stim/left_resp_img.png,"[0.5, 0]",left,stim/gold_coin.png,silver,,,,,training,,,gold,val,,,,,0.0,0.0,0.0,0.0,1.0,1.0,3.0,1.0,,,,,,,,,0.0,training_resp,,197.3055066000088,1.3646701031248083,3.0,,left,gold,0.0,121.0,1.0,right,2022_Jun_17_1427,habits_v_MRI,5.0,40.0,1.0,5.0,30.0,15.0,5.0,15.0,30.0,30.0,60.0,RR,60.09742120820547,
25.0,1.0,resp2,stim/left_resp_img.png,"[0.5, 0]",left,stim/gold_coin.png,silver,,,,,training,,,gold,val,,,,,0.0,0.0,0.0,0.0,1.0,1.0,3.0,1.0,,,,,,,,,0.0,training_resp,,198.4554869820131,2.514614415995311,3.0,,left,gold,0.0,121.0,1.0,right,2022_Jun_17_1427,habits_v_MRI,5.0,40.0,1.0,5.0,30.0,15.0,5.0,15.0,30.0,30.0,60.0,RR,60.09742120820547,
25.0,1.0,resp2,stim/left_resp_img.png,"[0.5, 0]",left,stim/gold_coin.png,silver,,,,,training,,,gold,val,,,,,0.0,0.0,0.0,0.0,1.0,1.0,3.0,1.0,,,,,,,,,0.0,training_resp,,199.489307139942,3.5478266785503365,3.0,,left,gold,0.0,121.0,1.0,right,2022_Jun_17_1427,habits_v_MRI,5.0,40.0,1.0,5.0,30.0,15.0,5.0,15.0,30.0,30.0,60.0,RR,60.09742120820547,
25.0,1.0,resp2,stim/left_resp_img.png,"[0.5, 0]",left,stim/gold_coin.png,silver,,,,,training,,,gold,val,,,,,0.0,0.0,0.0,0.0,1.0,1.0,3.0,1.0,,,,,,,,,0.0,training_resp,,206.8551147377002,10.914077075140083,3.0,,left,gold,0.0,121.0,1.0,right,2022_Jun_17_1427,habits_v_MRI,5.0,40.0,1.0,5.0,30.0,15.0,5.0,15.0,30.0,30.0,60.0,RR,60.09742120820547,
25.0,1.0,resp2,stim/left_resp_img.png,"[0.5, 0]",left,stim/gold_coin.png,silver,,,,,training,,,gold,val,,,,,0.0,0.0,0.0,0.0,1.0,1.0,3.0,1.0,,,,,,,,,0.0,training_resp,,208.20491911441783,12.263937168288976,3.0,20.0,left,gold,1.0,121.0,1.0,right,2022_Jun_17_1427,habits_v_MRI,5.0,40.0,1.0,5.0,30.0,15.0,5.0,15.0,30.0,30.0,60.0,RR,60.09742120820547,
25.0,1.0,resp2,stim/left_resp_img.png,"[0.5, 0]",left,stim/gold_coin.png,silver,,,,,training,,,gold,val,,,,,0.0,0.0,0.0,0.0,1.0,1.0,3.0,1.0,,,,,,,,,0.0,training_resp,,209.63809753657551,13.697161043295637,3.0,,left,gold,0.0,121.0,1.0,right,2022_Jun_17_1427,habits_v_MRI,5.0,40.0,1.0,5.0,30.0,15.0,5.0,15.0,30.0,30.0,60.0,RR,60.09742120820547,
25.0,1.0,resp2,stim/left_resp_img.png,"[0.5, 0]",left,stim/gold_coin.png,silver,,,,,training,,,gold,val,,,,,0.0,0.0,0.0,0.0,1.0,1.0,3.0,1.0,,,,,,,,,0.0,training_resp,,214.07116130017675,18.130243574560154,3.0,,left,gold,0.0,121.0,1.0,right,2022_Jun_17_1427,habits_v_MRI,5.0,40.0,1.0,5.0,30.0,15.0,5.0,15.0,30.0,30.0,60.0,RR,60.09742120820547,
25.0,1.0,resp2,stim/left_resp_img.png,"[0.5, 0]",left,stim/gold_coin.png,silver,,,,,training,,,gold,val,,,,,0.0,0.0,0.0,0.0,1.0,1.0,3.0,1.0,,,,,,,,,0.0,training_resp,,215.104233098682,19.163418301846832,3.0,,left,gold,0.0,121.0,1.0,right,2022_Jun_17_1427,habits_v_MRI,5.0,40.0,1.0,5.0,30.0,15.0,5.0,15.0,30.0,30.0,60.0,RR,60.09742120820547,
25.0,1.0,resp2,stim/left_resp_img.png,"[0.5, 0]",left,stim/gold_coin.png,silver,,,,,training,,,gold,val,,,,,0.0,0.0,0.0,0.0,1.0,1.0,3.0,1.0,,,,,,,,,0.0,training_resp,,216.18807193631076,20.24676536879269,3.0,,left,gold,0.0,121.0,1.0,right,2022_Jun_17_1427,habits_v_MRI,5.0,40.0,1.0,5.0,30.0,15.0,5.0,15.0,30.0,30.0,60.0,RR,60.09742120820547,
25.0,1.0,resp2,stim/left_resp_img.png,"[0.5, 0]",left,stim/gold_coin.png,silver,,,,,training,,,gold,val,,,,,0.0,0.0,0.0,0.0,1.0,1.0,3.0,1.0,,,,,,,,,0.0,training_resp,,220.7207082670648,24.77974714129232,3.0,,left,gold,0.0,121.0,1.0,right,2022_Jun_17_1427,habits_v_MRI,5.0,40.0,1.0,5.0,30.0,15.0,5.0,15.0,30.0,30.0,60.0,RR,60.09742120820547,
25.0,1.0,resp2,stim/left_resp_img.png,"[0.5, 0]",left,stim/gold_coin.png,silver,,,,,training,,,gold,val,,,,,0.0,0.0,0.0,0.0,1.0,1.0,3.0,1.0,,,,,,,,,0.0,training_resp,,222.0373170961975,26.096424882824067,3.0,,left,gold,0.0,121.0,1.0,right,2022_Jun_17_1427,habits_v_MRI,5.0,40.0,1.0,5.0,30.0,15.0,5.0,15.0,30.0,30.0,60.0,RR,60.09742120820547,
25.0,1.0,resp2,stim/left_resp_img.png,"[0.5, 0]",left,stim/gold_coin.png,silver,,,,,training,,,gold,val,,,,,0.0,0.0,0.0,0.0,1.0,1.0,3.0,1.0,,,,,,,,,0.0,training_resp,,223.05385372857563,27.11294040159555,3.0,,left,gold,0.0,121.0,1.0,right,2022_Jun_17_1427,habits_v_MRI,5.0,40.0,1.0,5.0,30.0,15.0,5.0,15.0,30.0,30.0,60.0,RR,60.09742120820547,
25.0,1.0,resp2,stim/left_resp_img.png,"[0.5, 0]",left,stim/gold_coin.png,silver,,,,,training,,,gold,val,,,,,0.0,0.0,0.0,0.0,1.0,1.0,3.0,1.0,,,,,,,,,0.0,training_resp,,224.25391583767487,28.31289225089131,3.0,,left,gold,0.0,121.0,1.0,right,2022_Jun_17_1427,habits_v_MRI,5.0,40.0,1.0,5.0,30.0,15.0,5.0,15.0,30.0,30.0,60.0,RR,60.09742120820547,
25.0,1.0,resp2,stim/left_resp_img.png,"[0.5, 0]",left,stim/gold_coin.png,silver,,,,,training,,,gold,val,,,,,0.0,0.0,0.0,0.0,1.0,1.0,3.0,1.0,,,,,,,,,0.0,training_resp,,229.6368952349294,33.69592355238274,3.0,,left,gold,0.0,121.0,1.0,right,2022_Jun_17_1427,habits_v_MRI,5.0,40.0,1.0,5.0,30.0,15.0,5.0,15.0,30.0,30.0,60.0,RR,60.09742120820547,
25.0,1.0,resp2,stim/left_resp_img.png,"[0.5, 0]",left,stim/gold_coin.png,silver,,,,,training,,,gold,val,,,,,0.0,0.0,0.0,0.0,1.0,1.0,3.0,1.0,,,,,,,,,0.0,training_resp,,230.65330489253392,34.712425875186455,3.0,,left,gold,0.0,121.0,1.0,right,2022_Jun_17_1427,habits_v_MRI,5.0,40.0,1.0,5.0,30.0,15.0,5.0,15.0,30.0,30.0,60.0,RR,60.09742120820547,
25.0,1.0,resp2,stim/left_resp_img.png,"[0.5, 0]",left,stim/gold_coin.png,silver,,,,,training,,,gold,val,,,,,0.0,0.0,0.0,0.0,1.0,1.0,3.0,1.0,,,,,,,,,0.0,training_resp,,231.87016403500456,35.929021390969865,3.0,,left,gold,0.0,121.0,1.0,right,2022_Jun_17_1427,habits_v_MRI,5.0,40.0,1.0,5.0,30.0,15.0,5.0,15.0,30.0,30.0,60.0,RR,60.09742120820547,
25.0,1.0,resp2,stim/left_resp_img.png,"[0.5, 0]",left,stim/gold_coin.png,silver,,,,,training,,,gold,val,,,,,0.0,0.0,0.0,0.0,1.0,1.0,3.0,1.0,,,,,,,,,0.0,training_resp,,232.9032551876153,36.96234156744322,3.0,,left,gold,0.0,121.0,1.0,right,2022_Jun_17_1427,habits_v_MRI,5.0,40.0,1.0,5.0,30.0,15.0,5.0,15.0,30.0,30.0,60.0,RR,60.09742120820547,
25.0,1.0,resp2,stim/left_resp_img.png,"[0.5, 0]",left,stim/gold_coin.png,silver,,,,,training,,,gold,val,,,,,0.0,0.0,0.0,0.0,1.0,1.0,3.0,1.0,,,,,,,,,0.0,training_resp,,238.6197363381507,42.67857727251248,3.0,,left,gold,0.0,121.0,1.0,right,2022_Jun_17_1427,habits_v_MRI,5.0,40.0,1.0,5.0,30.0,15.0,5.0,15.0,30.0,30.0,60.0,RR,60.09742120820547,
25.0,1.0,resp2,stim/left_resp_img.png,"[0.5, 0]",left,stim/gold_coin.png,silver,,,,,training,,,gold,val,,,,,0.0,0.0,0.0,0.0,1.0,1.0,3.0,1.0,,,,,,,,,0.0,training_resp,,240.98619933688315,45.04522560164333,3.0,,left,gold,0.0,121.0,1.0,right,2022_Jun_17_1427,habits_v_MRI,5.0,40.0,1.0,5.0,30.0,15.0,5.0,15.0,30.0,30.0,60.0,RR,60.09742120820547,
25.0,1.0,resp2,stim/left_resp_img.png,"[0.5, 0]",left,stim/gold_coin.png,silver,,,,,training,,,gold,val,,,,,0.0,0.0,0.0,0.0,1.0,1.0,3.0,1.0,,,,,,,,,0.0,training_resp,,241.936035501305,45.99501074152067,3.0,,left,gold,0.0,121.0,1.0,right,2022_Jun_17_1427,habits_v_MRI,5.0,40.0,1.0,5.0,30.0,15.0,5.0,15.0,30.0,30.0,60.0,RR,60.09742120820547,
25.0,1.0,resp2,stim/left_resp_img.png,"[0.5, 0]",left,stim/gold_coin.png,silver,,,,,training,,,gold,val,,,,,0.0,0.0,0.0,0.0,1.0,1.0,3.0,1.0,,,,,,,,,0.0,training_resp,,248.7187435302767,52.77785278315423,3.0,,left,gold,0.0,121.0,1.0,right,2022_Jun_17_1427,habits_v_MRI,5.0,40.0,1.0,5.0,30.0,15.0,5.0,15.0,30.0,30.0,60.0,RR,60.09742120820547,
25.0,1.0,resp2,stim/left_resp_img.png,"[0.5, 0]",left,stim/gold_coin.png,silver,,,,,training,,,gold,val,,,,,0.0,0.0,0.0,0.0,1.0,1.0,3.0,1.0,,,,,,,,,0.0,training_resp,,250.3353949384764,54.39448630344123,3.0,,left,gold,0.0,121.0,1.0,right,2022_Jun_17_1427,habits_v_MRI,5.0,40.0,1.0,5.0,30.0,15.0,5.0,15.0,30.0,30.0,60.0,RR,60.09742120820547,
25.0,1.0,resp2,stim/left_resp_img.png,"[0.5, 0]",left,stim/gold_coin.png,silver,,,,,training,,,gold,val,,,,,0.0,0.0,0.0,0.0,1.0,1.0,3.0,1.0,,,,,,,,,0.0,training_resp,,251.2353382250294,55.29440730344504,3.0,,left,gold,0.0,121.0,1.0,right,2022_Jun_17_1427,habits_v_MRI,5.0,40.0,1.0,5.0,30.0,15.0,5.0,15.0,30.0,30.0,60.0,RR,60.09742120820547,
25.0,1.0,resp2,stim/left_resp_img.png,"[0.5, 0]",left,stim/gold_coin.png,silver,,,,,training,,,gold,val,,,,,0.0,0.0,0.0,0.0,1.0,1.0,3.0,1.0,,,,,,,,,0.0,ITI_start,23.333333333333336,255.61908709531417,59.677427461603656,,,,,,121.0,1.0,right,2022_Jun_17_1427,habits_v_MRI,5.0,40.0,1.0,5.0,30.0,15.0,5.0,15.0,30.0,30.0,60.0,RR,60.09742120820547,
25.0,0.0,resp1,stim/right_resp_img.png,"[-0.5, 0]",right,stim/silver_coin.png,silver,,,,,training,,,silver,deval,,,,,0.0,0.0,0.0,0.0,2.0,0.0,4.0,0.0,,,,,,,,,0.0,training_period_start,45.0,278.9885672845994,0.0,4.0,13.0,,,,121.0,1.0,right,2022_Jun_17_1427,habits_v_MRI,5.0,40.0,1.0,5.0,30.0,15.0,5.0,15.0,30.0,30.0,60.0,RR,60.09742120820547,
25.0,0.0,resp1,stim/right_resp_img.png,"[-0.5, 0]",right,stim/silver_coin.png,silver,,,,,training,,,silver,deval,,,,,0.0,0.0,0.0,0.0,2.0,0.0,4.0,0.0,,,,,,,,,0.0,training_resp,,280.39998844615184,1.4315245242905803,4.0,,right,silver,0.0,121.0,1.0,right,2022_Jun_17_1427,habits_v_MRI,5.0,40.0,1.0,5.0,30.0,15.0,5.0,15.0,30.0,30.0,60.0,RR,60.09742120820547,
25.0,0.0,resp1,stim/right_resp_img.png,"[-0.5, 0]",right,stim/silver_coin.png,silver,,,,,training,,,silver,deval,,,,,0.0,0.0,0.0,0.0,2.0,0.0,4.0,0.0,,,,,,,,,0.0,training_resp,,281.38313276396366,2.4147661992465146,4.0,,right,silver,0.0,121.0,1.0,right,2022_Jun_17_1427,habits_v_MRI,5.0,40.0,1.0,5.0,30.0,15.0,5.0,15.0,30.0,30.0,60.0,RR,60.09742120820547,
25.0,0.0,resp1,stim/right_resp_img.png,"[-0.5, 0]",right,stim/silver_coin.png,silver,,,,,training,,,silver,deval,,,,,0.0,0.0,0.0,0.0,2.0,0.0,4.0,0.0,,,,,,,,,0.0,training_resp,,282.300049616897,3.331469277094584,4.0,,right,silver,0.0,121.0,1.0,right,2022_Jun_17_1427,habits_v_MRI,5.0,40.0,1.0,5.0,30.0,15.0,5.0,15.0,30.0,30.0,60.0,RR,60.09742120820547,
25.0,0.0,resp1,stim/right_resp_img.png,"[-0.5, 0]",right,stim/silver_coin.png,silver,,,,,training,,,silver,deval,,,,,0.0,0.0,0.0,0.0,2.0,0.0,4.0,0.0,,,,,,,,,0.0,training_resp,,290.0160539522185,11.047594135801774,4.0,,right,silver,0.0,121.0,1.0,right,2022_Jun_17_1427,habits_v_MRI,5.0,40.0,1.0,5.0,30.0,15.0,5.0,15.0,30.0,30.0,60.0,RR,60.09742120820547,
25.0,0.0,resp1,stim/right_resp_img.png,"[-0.5, 0]",right,stim/silver_coin.png,silver,,,,,training,,,silver,deval,,,,,0.0,0.0,0.0,0.0,2.0,0.0,4.0,0.0,,,,,,,,,0.0,training_resp,,291.0159615802695,12.047509681491649,4.0,,right,silver,0.0,121.0,1.0,right,2022_Jun_17_1427,habits_v_MRI,5.0,40.0,1.0,5.0,30.0,15.0,5.0,15.0,30.0,30.0,60.0,RR,60.09742120820547,
25.0,0.0,resp1,stim/right_resp_img.png,"[-0.5, 0]",right,stim/silver_coin.png,silver,,,,,training,,,silver,deval,,,,,0.0,0.0,0.0,0.0,2.0,0.0,4.0,0.0,,,,,,,,,0.0,training_resp,,291.9324661317514,12.96402566944016,4.0,,right,silver,0.0,121.0,1.0,right,2022_Jun_17_1427,habits_v_MRI,5.0,40.0,1.0,5.0,30.0,15.0,5.0,15.0,30.0,30.0,60.0,RR,60.09742120820547,
25.0,0.0,resp1,stim/right_resp_img.png,"[-0.5, 0]",right,stim/silver_coin.png,silver,,,,,training,,,silver,deval,,,,,0.0,0.0,0.0,0.0,2.0,0.0,4.0,0.0,,,,,,,,,0.0,training_resp,,298.9988484296482,20.03025401406921,4.0,,right,silver,0.0,121.0,1.0,right,2022_Jun_17_1427,habits_v_MRI,5.0,40.0,1.0,5.0,30.0,15.0,5.0,15.0,30.0,30.0,60.0,RR,60.09742120820547,
25.0,0.0,resp1,stim/right_resp_img.png,"[-0.5, 0]",right,stim/silver_coin.png,silver,,,,,training,,,silver,deval,,,,,0.0,0.0,0.0,0.0,2.0,0.0,4.0,0.0,,,,,,,,,0.0,training_resp,,299.9487406036933,20.980258793977555,4.0,,right,silver,0.0,121.0,1.0,right,2022_Jun_17_1427,habits_v_MRI,5.0,40.0,1.0,5.0,30.0,15.0,5.0,15.0,30.0,30.0,60.0,RR,60.09742120820547,
25.0,0.0,resp1,stim/right_resp_img.png,"[-0.5, 0]",right,stim/silver_coin.png,silver,,,,,training,,,silver,deval,,,,,0.0,0.0,0.0,0.0,2.0,0.0,4.0,0.0,,,,,,,,,0.0,training_resp,,300.7818549812655,21.81349076249171,4.0,,right,silver,0.0,121.0,1.0,right,2022_Jun_17_1427,habits_v_MRI,5.0,40.0,1.0,5.0,30.0,15.0,5.0,15.0,30.0,30.0,60.0,RR,60.09742120820547,
25.0,0.0,resp1,stim/right_resp_img.png,"[-0.5, 0]",right,stim/silver_coin.png,silver,,,,,training,,,silver,deval,,,,,0.0,0.0,0.0,0.0,2.0,0.0,4.0,0.0,,,,,,,,,0.0,training_resp,,307.9985029878444,29.029648757830728,4.0,,right,silver,0.0,121.0,1.0,right,2022_Jun_17_1427,habits_v_MRI,5.0,40.0,1.0,5.0,30.0,15.0,5.0,15.0,30.0,30.0,60.0,RR,60.09742120820547,
25.0,0.0,resp1,stim/right_resp_img.png,"[-0.5, 0]",right,stim/silver_coin.png,silver,,,,,training,,,silver,deval,,,,,0.0,0.0,0.0,0.0,2.0,0.0,4.0,0.0,,,,,,,,,0.0,training_resp,,308.8647225938039,29.896309403236955,4.0,,right,silver,0.0,121.0,1.0,right,2022_Jun_17_1427,habits_v_MRI,5.0,40.0,1.0,5.0,30.0,15.0,5.0,15.0,30.0,30.0,60.0,RR,60.09742120820547,
25.0,0.0,resp1,stim/right_resp_img.png,"[-0.5, 0]",right,stim/silver_coin.png,silver,,,,,training,,,silver,deval,,,,,0.0,0.0,0.0,0.0,2.0,0.0,4.0,0.0,,,,,,,,,0.0,training_resp,,309.7146513061016,30.7461953018792,4.0,,right,silver,0.0,121.0,1.0,right,2022_Jun_17_1427,habits_v_MRI,5.0,40.0,1.0,5.0,30.0,15.0,5.0,15.0,30.0,30.0,60.0,RR,60.09742120820547,
25.0,0.0,resp1,stim/right_resp_img.png,"[-0.5, 0]",right,stim/silver_coin.png,silver,,,,,training,,,silver,deval,,,,,0.0,0.0,0.0,0.0,2.0,0.0,4.0,0.0,,,,,,,,,0.0,training_resp,,316.01416809816146,37.04575666703749,4.0,22.0,right,silver,1.0,121.0,1.0,right,2022_Jun_17_1427,habits_v_MRI,5.0,40.0,1.0,5.0,30.0,15.0,5.0,15.0,30.0,30.0,60.0,RR,60.09742120820547,
25.0,0.0,resp1,stim/right_resp_img.png,"[-0.5, 0]",right,stim/silver_coin.png,silver,,,,,training,,,silver,deval,,,,,0.0,0.0,0.0,0.0,2.0,0.0,4.0,0.0,,,,,,,,,0.0,training_resp,,317.0974418540136,38.12903159589041,4.0,,right,silver,0.0,121.0,1.0,right,2022_Jun_17_1427,habits_v_MRI,5.0,40.0,1.0,5.0,30.0,15.0,5.0,15.0,30.0,30.0,60.0,RR,60.09742120820547,
25.0,0.0,resp1,stim/right_resp_img.png,"[-0.5, 0]",right,stim/silver_coin.png,silver,,,,,training,,,silver,deval,,,,,0.0,0.0,0.0,0.0,2.0,0.0,4.0,0.0,,,,,,,,,0.0,training_resp,,318.1475446948316,39.17896963335807,4.0,,right,silver,0.0,121.0,1.0,right,2022_Jun_17_1427,habits_v_MRI,5.0,40.0,1.0,5.0,30.0,15.0,5.0,15.0,30.0,30.0,60.0,RR,60.09742120820547,
25.0,0.0,resp1,stim/right_resp_img.png,"[-0.5, 0]",right,stim/silver_coin.png,silver,,,,,training,,,silver,deval,,,,,0.0,0.0,0.0,0.0,2.0,0.0,4.0,0.0,,,,,,,,,0.0,ITI_start,26.666666666666668,323.64778926054714,44.678585190093145,,,,,,121.0,1.0,right,2022_Jun_17_1427,habits_v_MRI,5.0,40.0,1.0,5.0,30.0,15.0,5.0,15.0,30.0,30.0,60.0,RR,60.09742120820547,
25.0,1.0,resp2,stim/left_resp_img.png,"[0.5, 0]",left,stim/gold_coin.png,silver,,,,,training,,,gold,val,,,,,0.0,0.0,0.0,0.0,2.0,1.0,5.0,1.0,,,,,,,,,0.0,training_period_start,45.0,350.34928738704184,0.0,5.0,16.0,,,,121.0,1.0,right,2022_Jun_17_1427,habits_v_MRI,5.0,40.0,1.0,5.0,30.0,15.0,5.0,15.0,30.0,30.0,60.0,RR,60.09742120820547,
25.0,1.0,resp2,stim/left_resp_img.png,"[0.5, 0]",left,stim/gold_coin.png,silver,,,,,training,,,gold,val,,,,,0.0,0.0,0.0,0.0,2.0,1.0,5.0,1.0,,,,,,,,,0.0,training_resp,,351.978540382348,1.6480399844585918,5.0,,left,gold,0.0,121.0,1.0,right,2022_Jun_17_1427,habits_v_MRI,5.0,40.0,1.0,5.0,30.0,15.0,5.0,15.0,30.0,30.0,60.0,RR,60.09742120820547,
25.0,1.0,resp2,stim/left_resp_img.png,"[0.5, 0]",left,stim/gold_coin.png,silver,,,,,training,,,gold,val,,,,,0.0,0.0,0.0,0.0,2.0,1.0,5.0,1.0,,,,,,,,,0.0,training_resp,,354.37828719522804,4.047848965099547,5.0,,left,gold,0.0,121.0,1.0,right,2022_Jun_17_1427,habits_v_MRI,5.0,40.0,1.0,5.0,30.0,15.0,5.0,15.0,30.0,30.0,60.0,RR,60.09742120820547,
25.0,1.0,resp2,stim/left_resp_img.png,"[0.5, 0]",left,stim/gold_coin.png,silver,,,,,training,,,gold,val,,,,,0.0,0.0,0.0,0.0,2.0,1.0,5.0,1.0,,,,,,,,,0.0,training_resp,,360.6448274931754,10.314097484981176,5.0,,left,gold,0.0,121.0,1.0,right,2022_Jun_17_1427,habits_v_MRI,5.0,40.0,1.0,5.0,30.0,15.0,5.0,15.0,30.0,30.0,60.0,RR,60.09742120820547,
25.0,1.0,resp2,stim/left_resp_img.png,"[0.5, 0]",left,stim/gold_coin.png,silver,,,,,training,,,gold,val,,,,,0.0,0.0,0.0,0.0,2.0,1.0,5.0,1.0,,,,,,,,,0.0,training_resp,,361.5110447531915,11.180677194905002,5.0,,left,gold,0.0,121.0,1.0,right,2022_Jun_17_1427,habits_v_MRI,5.0,40.0,1.0,5.0,30.0,15.0,5.0,15.0,30.0,30.0,60.0,RR,60.09742120820547,
25.0,1.0,resp2,stim/left_resp_img.png,"[0.5, 0]",left,stim/gold_coin.png,silver,,,,,training,,,gold,val,,,,,0.0,0.0,0.0,0.0,2.0,1.0,5.0,1.0,,,,,,,,,0.0,training_resp,,367.3106662334176,16.980246770952363,5.0,,left,gold,0.0,121.0,1.0,right,2022_Jun_17_1427,habits_v_MRI,5.0,40.0,1.0,5.0,30.0,15.0,5.0,15.0,30.0,30.0,60.0,RR,60.09742120820547,
25.0,1.0,resp2,stim/left_resp_img.png,"[0.5, 0]",left,stim/gold_coin.png,silver,,,,,training,,,gold,val,,,,,0.0,0.0,0.0,0.0,2.0,1.0,5.0,1.0,,,,,,,,,0.0,training_resp,,368.14392693992704,17.8135719911661,5.0,,left,gold,0.0,121.0,1.0,right,2022_Jun_17_1427,habits_v_MRI,5.0,40.0,1.0,5.0,30.0,15.0,5.0,15.0,30.0,30.0,60.0,RR,60.09742120820547,
25.0,1.0,resp2,stim/left_resp_img.png,"[0.5, 0]",left,stim/gold_coin.png,silver,,,,,training,,,gold,val,,,,,0.0,0.0,0.0,0.0,2.0,1.0,5.0,1.0,,,,,,,,,0.0,training_resp,,374.093780112511,23.76323631446576,5.0,,left,gold,0.0,121.0,1.0,right,2022_Jun_17_1427,habits_v_MRI,5.0,40.0,1.0,5.0,30.0,15.0,5.0,15.0,30.0,30.0,60.0,RR,60.09742120820547,
25.0,1.0,resp2,stim/left_resp_img.png,"[0.5, 0]",left,stim/gold_coin.png,silver,,,,,training,,,gold,val,,,,,0.0,0.0,0.0,0.0,2.0,1.0,5.0,1.0,,,,,,,,,0.0,training_resp,,375.0767766351928,24.74642872432014,5.0,,left,gold,0.0,121.0,1.0,right,2022_Jun_17_1427,habits_v_MRI,5.0,40.0,1.0,5.0,30.0,15.0,5.0,15.0,30.0,30.0,60.0,RR,60.09742120820547,
25.0,1.0,resp2,stim/left_resp_img.png,"[0.5, 0]",left,stim/gold_coin.png,silver,,,,,training,,,gold,val,,,,,0.0,0.0,0.0,0.0,2.0,1.0,5.0,1.0,,,,,,,,,0.0,training_resp,,376.9934539075475,26.663013624725863,5.0,,left,gold,0.0,121.0,1.0,right,2022_Jun_17_1427,habits_v_MRI,5.0,40.0,1.0,5.0,30.0,15.0,5.0,15.0,30.0,30.0,60.0,RR,60.09742120820547,
25.0,1.0,resp2,stim/left_resp_img.png,"[0.5, 0]",left,stim/gold_coin.png,silver,,,,,training,,,gold,val,,,,,0.0,0.0,0.0,0.0,2.0,1.0,5.0,1.0,,,,,,,,,0.0,training_resp,,383.142995009548,32.812574960582424,5.0,,left,gold,0.0,121.0,1.0,right,2022_Jun_17_1427,habits_v_MRI,5.0,40.0,1.0,5.0,30.0,15.0,5.0,15.0,30.0,30.0,60.0,RR,60.09742120820547,
25.0,1.0,resp2,stim/left_resp_img.png,"[0.5, 0]",left,stim/gold_coin.png,silver,,,,,training,,,gold,val,,,,,0.0,0.0,0.0,0.0,2.0,1.0,5.0,1.0,,,,,,,,,0.0,training_resp,,384.0263186756056,33.695829420990776,5.0,,left,gold,0.0,121.0,1.0,right,2022_Jun_17_1427,habits_v_MRI,5.0,40.0,1.0,5.0,30.0,15.0,5.0,15.0,30.0,30.0,60.0,RR,60.09742120820547,
25.0,1.0,resp2,stim/left_resp_img.png,"[0.5, 0]",left,stim/gold_coin.png,silver,,,,,training,,,gold,val,,,,,0.0,0.0,0.0,0.0,2.0,1.0,5.0,1.0,,,,,,,,,0.0,training_resp,,391.9591410991852,41.628655363456346,5.0,,left,gold,0.0,121.0,1.0,right,2022_Jun_17_1427,habits_v_MRI,5.0,40.0,1.0,5.0,30.0,15.0,5.0,15.0,30.0,30.0,60.0,RR,60.09742120820547,
25.0,1.0,resp2,stim/left_resp_img.png,"[0.5, 0]",left,stim/gold_coin.png,silver,,,,,training,,,gold,val,,,,,0.0,0.0,0.0,0.0,2.0,1.0,5.0,1.0,,,,,,,,,0.0,training_resp,,393.02564010827336,42.69524351885775,5.0,,left,gold,0.0,121.0,1.0,right,2022_Jun_17_1427,habits_v_MRI,5.0,40.0,1.0,5.0,30.0,15.0,5.0,15.0,30.0,30.0,60.0,RR,60.09742120820547,
25.0,1.0,resp2,stim/left_resp_img.png,"[0.5, 0]",left,stim/gold_coin.png,silver,,,,,training,,,gold,val,,,,,0.0,0.0,0.0,0.0,2.0,1.0,5.0,1.0,,,,,,,,,0.0,ITI_start,30.0,395.0095181233482,44.67836818931392,,,,,,121.0,1.0,right,2022_Jun_17_1427,habits_v_MRI,5.0,40.0,1.0,5.0,30.0,15.0,5.0,15.0,30.0,30.0,60.0,RR,60.09742120820547,
25.0,0.0,resp1,stim/right_resp_img.png,"[-0.5, 0]",right,stim/silver_coin.png,silver,,,,,training,,,silver,deval,,,,,0.0,0.0,0.0,0.0,3.0,0.0,6.0,0.0,,,,,,,,,0.0,training_period_start,60.0,425.0447417485411,0.0,6.0,6.0,,,,121.0,1.0,right,2022_Jun_17_1427,habits_v_MRI,5.0,40.0,1.0,5.0,30.0,15.0,5.0,15.0,30.0,30.0,60.0,RR,60.09742120820547,
25.0,0.0,resp1,stim/right_resp_img.png,"[-0.5, 0]",right,stim/silver_coin.png,silver,,,,,training,,,silver,deval,,,,,0.0,0.0,0.0,0.0,3.0,0.0,6.0,0.0,,,,,,,,,0.0,training_resp,,426.59000723139616,1.564782650209963,6.0,,right,silver,0.0,121.0,1.0,right,2022_Jun_17_1427,habits_v_MRI,5.0,40.0,1.0,5.0,30.0,15.0,5.0,15.0,30.0,30.0,60.0,RR,60.09742120820547,
25.0,0.0,resp1,stim/right_resp_img.png,"[-0.5, 0]",right,stim/silver_coin.png,silver,,,,,training,,,silver,deval,,,,,0.0,0.0,0.0,0.0,3.0,0.0,6.0,0.0,,,,,,,,,0.0,training_resp,,427.5567219509976,2.5314627670450136,6.0,,right,silver,0.0,121.0,1.0,right,2022_Jun_17_1427,habits_v_MRI,5.0,40.0,1.0,5.0,30.0,15.0,5.0,15.0,30.0,30.0,60.0,RR,60.09742120820547,
25.0,0.0,resp1,stim/right_resp_img.png,"[-0.5, 0]",right,stim/silver_coin.png,silver,,,,,training,,,silver,deval,,,,,0.0,0.0,0.0,0.0,3.0,0.0,6.0,0.0,,,,,,,,,0.0,training_resp,,428.55661491682986,3.531341363908723,6.0,,right,silver,0.0,121.0,1.0,right,2022_Jun_17_1427,habits_v_MRI,5.0,40.0,1.0,5.0,30.0,15.0,5.0,15.0,30.0,30.0,60.0,RR,60.09742120820547,
25.0,0.0,resp1,stim/right_resp_img.png,"[-0.5, 0]",right,stim/silver_coin.png,silver,,,,,training,,,silver,deval,,,,,0.0,0.0,0.0,0.0,3.0,0.0,6.0,0.0,,,,,,,,,0.0,training_resp,,435.4728405929636,10.447607507754585,6.0,,right,silver,0.0,121.0,1.0,right,2022_Jun_17_1427,habits_v_MRI,5.0,40.0,1.0,5.0,30.0,15.0,5.0,15.0,30.0,30.0,60.0,RR,60.09742120820547,
25.0,0.0,resp1,stim/right_resp_img.png,"[-0.5, 0]",right,stim/silver_coin.png,silver,,,,,training,,,silver,deval,,,,,0.0,0.0,0.0,0.0,3.0,0.0,6.0,0.0,,,,,,,,,0.0,training_resp,,436.4226758776349,11.397425491013564,6.0,,right,silver,0.0,121.0,1.0,right,2022_Jun_17_1427,habits_v_MRI,5.0,40.0,1.0,5.0,30.0,15.0,5.0,15.0,30.0,30.0,60.0,RR,60.09742120820547,
25.0,0.0,resp1,stim/right_resp_img.png,"[-0.5, 0]",right,stim/silver_coin.png,silver,,,,,training,,,silver,deval,,,,,0.0,0.0,0.0,0.0,3.0,0.0,6.0,0.0,,,,,,,,,0.0,training_resp,,437.1892504851567,12.164061973046046,6.0,20.0,right,silver,1.0,121.0,1.0,right,2022_Jun_17_1427,habits_v_MRI,5.0,40.0,1.0,5.0,30.0,15.0,5.0,15.0,30.0,30.0,60.0,RR,60.09742120820547,
25.0,0.0,resp1,stim/right_resp_img.png,"[-0.5, 0]",right,stim/silver_coin.png,silver,,,,,training,,,silver,deval,,,,,0.0,0.0,0.0,0.0,3.0,0.0,6.0,0.0,,,,,,,,,0.0,training_resp,,444.855621757044,19.830320932378527,6.0,,right,silver,0.0,121.0,1.0,right,2022_Jun_17_1427,habits_v_MRI,5.0,40.0,1.0,5.0,30.0,15.0,5.0,15.0,30.0,30.0,60.0,RR,60.09742120820547,
25.0,0.0,resp1,stim/right_resp_img.png,"[-0.5, 0]",right,stim/silver_coin.png,silver,,,,,training,,,silver,deval,,,,,0.0,0.0,0.0,0.0,3.0,0.0,6.0,0.0,,,,,,,,,0.0,training_resp,,445.5555475075962,20.5302141327993,6.0,,right,silver,0.0,121.0,1.0,right,2022_Jun_17_1427,habits_v_MRI,5.0,40.0,1.0,5.0,30.0,15.0,5.0,15.0,30.0,30.0,60.0,RR,60.09742120820547,
25.0,0.0,resp1,stim/right_resp_img.png,"[-0.5, 0]",right,stim/silver_coin.png,silver,,,,,training,,,silver,deval,,,,,0.0,0.0,0.0,0.0,3.0,0.0,6.0,0.0,,,,,,,,,0.0,training_resp,,446.2720456663519,21.246821964916307,6.0,,right,silver,0.0,121.0,1.0,right,2022_Jun_17_1427,habits_v_MRI,5.0,40.0,1.0,5.0,30.0,15.0,5.0,15.0,30.0,30.0,60.0,RR,60.09742120820547,
25.0,0.0,resp1,stim/right_resp_img.png,"[-0.5, 0]",right,stim/silver_coin.png,silver,,,,,training,,,silver,deval,,,,,0.0,0.0,0.0,0.0,3.0,0.0,6.0,0.0,,,,,,,,,0.0,training_resp,,456.4046472182963,31.379408268199768,6.0,,right,silver,0.0,121.0,1.0,right,2022_Jun_17_1427,habits_v_MRI,5.0,40.0,1.0,5.0,30.0,15.0,5.0,15.0,30.0,30.0,60.0,RR,60.09742120820547,
25.0,0.0,resp1,stim/right_resp_img.png,"[-0.5, 0]",right,stim/silver_coin.png,silver,,,,,training,,,silver,deval,,,,,0.0,0.0,0.0,0.0,3.0,0.0,6.0,0.0,,,,,,,,,0.0,training_resp,,457.1379626441631,32.11272134812316,6.0,,right,silver,0.0,121.0,1.0,right,2022_Jun_17_1427,habits_v_MRI,5.0,40.0,1.0,5.0,30.0,15.0,5.0,15.0,30.0,30.0,60.0,RR,60.09742120820547,
25.0,0.0,resp1,stim/right_resp_img.png,"[-0.5, 0]",right,stim/silver_coin.png,silver,,,,,training,,,silver,deval,,,,,0.0,0.0,0.0,0.0,3.0,0.0,6.0,0.0,,,,,,,,,0.0,training_resp,,457.82137932733167,32.796018094348256,6.0,,right,silver,0.0,121.0,1.0,right,2022_Jun_17_1427,habits_v_MRI,5.0,40.0,1.0,5.0,30.0,15.0,5.0,15.0,30.0,30.0,60.0,RR,60.09742120820547,
25.0,0.0,resp1,stim/right_resp_img.png,"[-0.5, 0]",right,stim/silver_coin.png,silver,,,,,training,,,silver,deval,,,,,0.0,0.0,0.0,0.0,3.0,0.0,6.0,0.0,,,,,,,,,0.0,training_resp,,464.037437326333,39.01224676152924,6.0,,right,silver,0.0,121.0,1.0,right,2022_Jun_17_1427,habits_v_MRI,5.0,40.0,1.0,5.0,30.0,15.0,5.0,15.0,30.0,30.0,60.0,RR,60.09742120820547,
25.0,0.0,resp1,stim/right_resp_img.png,"[-0.5, 0]",right,stim/silver_coin.png,silver,,,,,training,,,silver,deval,,,,,0.0,0.0,0.0,0.0,3.0,0.0,6.0,0.0,,,,,,,,,0.0,training_resp,,465.0541067983722,40.02887166041182,6.0,,right,silver,0.0,121.0,1.0,right,2022_Jun_17_1427,habits_v_MRI,5.0,40.0,1.0,5.0,30.0,15.0,5.0,15.0,30.0,30.0,60.0,RR,60.09742120820547,
25.0,0.0,resp1,stim/right_resp_img.png,"[-0.5, 0]",right,stim/silver_coin.png,silver,,,,,training,,,silver,deval,,,,,0.0,0.0,0.0,0.0,3.0,0.0,6.0,0.0,,,,,,,,,0.0,training_resp,,465.8206632247311,40.79551869927673,6.0,,right,silver,0.0,121.0,1.0,right,2022_Jun_17_1427,habits_v_MRI,5.0,40.0,1.0,5.0,30.0,15.0,5.0,15.0,30.0,30.0,60.0,RR,60.09742120820547,
25.0,0.0,resp1,stim/right_resp_img.png,"[-0.5, 0]",right,stim/silver_coin.png,silver,,,,,training,,,silver,deval,,,,,0.0,0.0,0.0,0.0,3.0,0.0,6.0,0.0,,,,,,,,,0.0,training_resp,,476.5532687061932,51.52805497508962,6.0,,right,silver,0.0,121.0,1.0,right,2022_Jun_17_1427,habits_v_MRI,5.0,40.0,1.0,5.0,30.0,15.0,5.0,15.0,30.0,30.0,60.0,RR,60.09742120820547,
25.0,0.0,resp1,stim/right_resp_img.png,"[-0.5, 0]",right,stim/silver_coin.png,silver,,,,,training,,,silver,deval,,,,,0.0,0.0,0.0,0.0,3.0,0.0,6.0,0.0,,,,,,,,,0.0,training_resp,,477.2532211419312,52.22799832024612,6.0,,right,silver,0.0,121.0,1.0,right,2022_Jun_17_1427,habits_v_MRI,5.0,40.0,1.0,5.0,30.0,15.0,5.0,15.0,30.0,30.0,60.0,RR,60.09742120820547,
25.0,0.0,resp1,stim/right_resp_img.png,"[-0.5, 0]",right,stim/silver_coin.png,silver,,,,,training,,,silver,deval,,,,,0.0,0.0,0.0,0.0,3.0,0.0,6.0,0.0,,,,,,,,,0.0,training_resp,,477.91993433673633,52.89474201243138,6.0,,right,silver,0.0,121.0,1.0,right,2022_Jun_17_1427,habits_v_MRI,5.0,40.0,1.0,5.0,30.0,15.0,5.0,15.0,30.0,30.0,60.0,RR,60.09742120820547,
25.0,0.0,resp1,stim/right_resp_img.png,"[-0.5, 0]",right,stim/silver_coin.png,silver,,,,,training,,,silver,deval,,,,,0.0,0.0,0.0,0.0,3.0,0.0,6.0,0.0,,,,,,,,,0.0,ITI_start,16.666666666666668,484.7036191624357,59.67756352695869,,,,,,121.0,1.0,right,2022_Jun_17_1427,habits_v_MRI,5.0,40.0,1.0,5.0,30.0,15.0,5.0,15.0,30.0,30.0,60.0,RR,60.09742120820547,
25.0,1.0,resp2,stim/left_resp_img.png,"[0.5, 0]",left,stim/gold_coin.png,silver,,,,,training,,,gold,val,,,,,0.0,0.0,0.0,0.0,3.0,1.0,7.0,1.0,,,,,,,,,0.0,training_period_start,30.0,501.4062852809439,0.0,7.0,5.0,,,,121.0,1.0,right,2022_Jun_17_1427,habits_v_MRI,5.0,40.0,1.0,5.0,30.0,15.0,5.0,15.0,30.0,30.0,60.0,RR,60.09742120820547,
25.0,1.0,resp2,stim/left_resp_img.png,"[0.5, 0]",left,stim/gold_coin.png,silver,,,,,training,,,gold,val,,,,,0.0,0.0,0.0,0.0,3.0,1.0,7.0,1.0,,,,,,,,,0.0,training_resp,,503.1848770396901,1.7978640671935864,7.0,,left,gold,0.0,121.0,1.0,right,2022_Jun_17_1427,habits_v_MRI,5.0,40.0,1.0,5.0,30.0,15.0,5.0,15.0,30.0,30.0,60.0,RR,60.09742120820547,
25.0,1.0,resp2,stim/left_resp_img.png,"[0.5, 0]",left,stim/gold_coin.png,silver,,,,,training,,,gold,val,,,,,0.0,0.0,0.0,0.0,3.0,1.0,7.0,1.0,,,,,,,,,0.0,training_resp,,504.01831251982367,2.631112457427662,7.0,,left,gold,0.0,121.0,1.0,right,2022_Jun_17_1427,habits_v_MRI,5.0,40.0,1.0,5.0,30.0,15.0,5.0,15.0,30.0,30.0,60.0,RR,60.09742120820547,
25.0,1.0,resp2,stim/left_resp_img.png,"[0.5, 0]",left,stim/gold_coin.png,silver,,,,,training,,,gold,val,,,,,0.0,0.0,0.0,0.0,3.0,1.0,7.0,1.0,,,,,,,,,0.0,training_resp,,504.7682021133369,3.381204096309375,7.0,,left,gold,0.0,121.0,1.0,right,2022_Jun_17_1427,habits_v_MRI,5.0,40.0,1.0,5.0,30.0,15.0,5.0,15.0,30.0,30.0,60.0,RR,60.09742120820547,
25.0,1.0,resp2,stim/left_resp_img.png,"[0.5, 0]",left,stim/gold_coin.png,silver,,,,,training,,,gold,val,,,,,0.0,0.0,0.0,0.0,3.0,1.0,7.0,1.0,,,,,,,,,0.0,training_resp,,511.8843447426916,10.497253767156508,7.0,,left,gold,0.0,121.0,1.0,right,2022_Jun_17_1427,habits_v_MRI,5.0,40.0,1.0,5.0,30.0,15.0,5.0,15.0,30.0,30.0,60.0,RR,60.09742120820547,
25.0,1.0,resp2,stim/left_resp_img.png,"[0.5, 0]",left,stim/gold_coin.png,silver,,,,,training,,,gold,val,,,,,0.0,0.0,0.0,0.0,3.0,1.0,7.0,1.0,,,,,,,,,0.0,training_resp,,512.7342432508012,11.347151688823942,7.0,13.0,left,gold,1.0,121.0,1.0,right,2022_Jun_17_1427,habits_v_MRI,5.0,40.0,1.0,5.0,30.0,15.0,5.0,15.0,30.0,30.0,60.0,RR,60.09742120820547,
25.0,1.0,resp2,stim/left_resp_img.png,"[0.5, 0]",left,stim/gold_coin.png,silver,,,,,training,,,gold,val,,,,,0.0,0.0,0.0,0.0,3.0,1.0,7.0,1.0,,,,,,,,,0.0,training_resp,,521.9003157067928,20.51322825026,7.0,,left,gold,0.0,121.0,1.0,right,2022_Jun_17_1427,habits_v_MRI,5.0,40.0,1.0,5.0,30.0,15.0,5.0,15.0,30.0,30.0,60.0,RR,60.09742120820547,
25.0,1.0,resp2,stim/left_resp_img.png,"[0.5, 0]",left,stim/gold_coin.png,silver,,,,,training,,,gold,val,,,,,0.0,0.0,0.0,0.0,3.0,1.0,7.0,1.0,,,,,,,,,0.0,training_resp,,522.6338724727393,21.24652725446504,7.0,,left,gold,0.0,121.0,1.0,right,2022_Jun_17_1427,habits_v_MRI,5.0,40.0,1.0,5.0,30.0,15.0,5.0,15.0,30.0,30.0,60.0,RR,60.09742120820547,
25.0,1.0,resp2,stim/left_resp_img.png,"[0.5, 0]",left,stim/gold_coin.png,silver,,,,,training,,,gold,val,,,,,0.0,0.0,0.0,0.0,3.0,1.0,7.0,1.0,,,,,,,,,0.0,training_resp,,523.5167586182943,22.12978611350991,7.0,,left,gold,0.0,121.0,1.0,right,2022_Jun_17_1427,habits_v_MRI,5.0,40.0,1.0,5.0,30.0,15.0,5.0,15.0,30.0,30.0,60.0,RR,60.09742120820547,
25.0,1.0,resp2,stim/left_resp_img.png,"[0.5, 0]",left,stim/gold_coin.png,silver,,,,,training,,,gold,val,,,,,0.0,0.0,0.0,0.0,3.0,1.0,7.0,1.0,,,,,,,,,0.0,ITI_start,21.666666666666668,531.0671438532881,29.679330910381395,,,,,,121.0,1.0,right,2022_Jun_17_1427,habits_v_MRI,5.0,40.0,1.0,5.0,30.0,15.0,5.0,15.0,30.0,30.0,60.0,RR,60.09742120820547,
25.0,0.0,resp1,stim/right_resp_img.png,"[-0.5, 0]",right,stim/silver_coin.png,silver,,,,,training,,,silver,deval,,,,,0.0,0.0,0.0,0.0,4.0,0.0,8.0,0.0,,,,,,,,,0.0,training_period_start,30.0,552.7697225849843,0.0,8.0,14.0,,,,121.0,1.0,right,2022_Jun_17_1427,habits_v_MRI,5.0,40.0,1.0,5.0,30.0,15.0,5.0,15.0,30.0,30.0,60.0,RR,60.09742120820547,
25.0,0.0,resp1,stim/right_resp_img.png,"[-0.5, 0]",right,stim/silver_coin.png,silver,,,,,training,,,silver,deval,,,,,0.0,0.0,0.0,0.0,4.0,0.0,8.0,0.0,,,,,,,,,0.0,training_resp,,553.8148575741798,1.0649518522550352,8.0,,right,silver,0.0,121.0,1.0,right,2022_Jun_17_1427,habits_v_MRI,5.0,40.0,1.0,5.0,30.0,15.0,5.0,15.0,30.0,30.0,60.0,RR,60.09742120820547,
25.0,0.0,resp1,stim/right_resp_img.png,"[-0.5, 0]",right,stim/silver_coin.png,silver,,,,,training,,,silver,deval,,,,,0.0,0.0,0.0,0.0,4.0,0.0,8.0,0.0,,,,,,,,,0.0,training_resp,,554.6147456134786,1.8648686294909569,8.0,,right,silver,0.0,121.0,1.0,right,2022_Jun_17_1427,habits_v_MRI,5.0,40.0,1.0,5.0,30.0,15.0,5.0,15.0,30.0,30.0,60.0,RR,60.09742120820547,
25.0,0.0,resp1,stim/right_resp_img.png,"[-0.5, 0]",right,stim/silver_coin.png,silver,,,,,training,,,silver,deval,,,,,0.0,0.0,0.0,0.0,4.0,0.0,8.0,0.0,,,,,,,,,0.0,training_resp,,555.348036700103,2.5981875743018463,8.0,,right,silver,0.0,121.0,1.0,right,2022_Jun_17_1427,habits_v_MRI,5.0,40.0,1.0,5.0,30.0,15.0,5.0,15.0,30.0,30.0,60.0,RR,60.09742120820547,
25.0,0.0,resp1,stim/right_resp_img.png,"[-0.5, 0]",right,stim/silver_coin.png,silver,,,,,training,,,silver,deval,,,,,0.0,0.0,0.0,0.0,4.0,0.0,8.0,0.0,,,,,,,,,0.0,training_resp,,562.1976264219848,9.447680818848312,8.0,,right,silver,0.0,121.0,1.0,right,2022_Jun_17_1427,habits_v_MRI,5.0,40.0,1.0,5.0,30.0,15.0,5.0,15.0,30.0,30.0,60.0,RR,60.09742120820547,
25.0,0.0,resp1,stim/right_resp_img.png,"[-0.5, 0]",right,stim/silver_coin.png,silver,,,,,training,,,silver,deval,,,,,0.0,0.0,0.0,0.0,4.0,0.0,8.0,0.0,,,,,,,,,0.0,training_resp,,562.9308371596853,10.180895955185406,8.0,,right,silver,0.0,121.0,1.0,right,2022_Jun_17_1427,habits_v_MRI,5.0,40.0,1.0,5.0,30.0,15.0,5.0,15.0,30.0,30.0,60.0,RR,60.09742120820547,
25.0,0.0,resp1,stim/right_resp_img.png,"[-0.5, 0]",right,stim/silver_coin.png,silver,,,,,training,,,silver,deval,,,,,0.0,0.0,0.0,0.0,4.0,0.0,8.0,0.0,,,,,,,,,0.0,training_resp,,563.5306947602076,10.780893140065018,8.0,,right,silver,0.0,121.0,1.0,right,2022_Jun_17_1427,habits_v_MRI,5.0,40.0,1.0,5.0,30.0,15.0,5.0,15.0,30.0,30.0,60.0,RR,60.09742120820547,
25.0,0.0,resp1,stim/right_resp_img.png,"[-0.5, 0]",right,stim/silver_coin.png,silver,,,,,training,,,silver,deval,,,,,0.0,0.0,0.0,0.0,4.0,0.0,8.0,0.0,,,,,,,,,0.0,training_resp,,570.7302891447325,17.980440018931404,8.0,,right,silver,0.0,121.0,1.0,right,2022_Jun_17_1427,habits_v_MRI,5.0,40.0,1.0,5.0,30.0,15.0,5.0,15.0,30.0,30.0,60.0,RR,60.09742120820547,
25.0,0.0,resp1,stim/right_resp_img.png,"[-0.5, 0]",right,stim/silver_coin.png,silver,,,,,training,,,silver,deval,,,,,0.0,0.0,0.0,0.0,4.0,0.0,8.0,0.0,,,,,,,,,0.0,training_resp,,571.4301676829346,18.6803437761846,8.0,,right,silver,0.0,121.0,1.0,right,2022_Jun_17_1427,habits_v_MRI,5.0,40.0,1.0,5.0,30.0,15.0,5.0,15.0,30.0,30.0,60.0,RR,60.09742120820547,
25.0,0.0,resp1,stim/right_resp_img.png,"[-0.5, 0]",right,stim/silver_coin.png,silver,,,,,training,,,silver,deval,,,,,0.0,0.0,0.0,0.0,4.0,0.0,8.0,0.0,,,,,,,,,0.0,training_resp,,572.0800512942951,19.3302652160055,8.0,,right,silver,0.0,121.0,1.0,right,2022_Jun_17_1427,habits_v_MRI,5.0,40.0,1.0,5.0,30.0,15.0,5.0,15.0,30.0,30.0,60.0,RR,60.09742120820547,
25.0,0.0,resp1,stim/right_resp_img.png,"[-0.5, 0]",right,stim/silver_coin.png,silver,,,,,training,,,silver,deval,,,,,0.0,0.0,0.0,0.0,4.0,0.0,8.0,0.0,,,,,,,,,0.0,training_resp,,578.279708139773,25.529895083105657,8.0,,right,silver,0.0,121.0,1.0,right,2022_Jun_17_1427,habits_v_MRI,5.0,40.0,1.0,5.0,30.0,15.0,5.0,15.0,30.0,30.0,60.0,RR,60.09742120820547,
25.0,0.0,resp1,stim/right_resp_img.png,"[-0.5, 0]",right,stim/silver_coin.png,silver,,,,,training,,,silver,deval,,,,,0.0,0.0,0.0,0.0,4.0,0.0,8.0,0.0,,,,,,,,,0.0,training_resp,,578.9630380226299,26.213221446960237,8.0,,right,silver,0.0,121.0,1.0,right,2022_Jun_17_1427,habits_v_MRI,5.0,40.0,1.0,5.0,30.0,15.0,5.0,15.0,30.0,30.0,60.0,RR,60.09742120820547,
25.0,0.0,resp1,stim/right_resp_img.png,"[-0.5, 0]",right,stim/silver_coin.png,silver,,,,,training,,,silver,deval,,,,,0.0,0.0,0.0,0.0,4.0,0.0,8.0,0.0,,,,,,,,,0.0,training_resp,,579.5630252371775,26.813155291078147,8.0,,right,silver,0.0,121.0,1.0,right,2022_Jun_17_1427,habits_v_MRI,5.0,40.0,1.0,5.0,30.0,15.0,5.0,15.0,30.0,30.0,60.0,RR,60.09742120820547,
25.0,0.0,resp1,stim/right_resp_img.png,"[-0.5, 0]",right,stim/silver_coin.png,silver,,,,,training,,,silver,deval,,,,,0.0,0.0,0.0,0.0,4.0,0.0,8.0,0.0,,,,,,,,,0.0,ITI_start,18.33333333333333,582.4302524305531,29.67964761418989,,,,,,121.0,1.0,right,2022_Jun_17_1427,habits_v_MRI,5.0,40.0,1.0,5.0,30.0,15.0,5.0,15.0,30.0,30.0,60.0,RR,60.09742120820547,
25.0,1.0,resp2,stim/left_resp_img.png,"[0.5, 0]",left,stim/gold_coin.png,silver,,,,,training,,,gold,val,,,,,0.0,0.0,0.0,0.0,4.0,1.0,9.0,1.0,,,,,,,,,0.0,training_period_start,52.5,600.7990517065628,0.0,9.0,20.0,,,,121.0,1.0,right,2022_Jun_17_1427,habits_v_MRI,5.0,40.0,1.0,5.0,30.0,15.0,5.0,15.0,30.0,30.0,60.0,RR,60.09742120820547,
25.0,1.0,resp2,stim/left_resp_img.png,"[0.5, 0]",left,stim/gold_coin.png,silver,,,,,training,,,gold,val,,,,,0.0,0.0,0.0,0.0,4.0,1.0,9.0,1.0,,,,,,,,,0.0,training_resp,,601.8614537996473,1.0815638483618386,9.0,,left,gold,0.0,121.0,1.0,right,2022_Jun_17_1427,habits_v_MRI,5.0,40.0,1.0,5.0,30.0,15.0,5.0,15.0,30.0,30.0,60.0,RR,60.09742120820547,
25.0,1.0,resp2,stim/left_resp_img.png,"[0.5, 0]",left,stim/gold_coin.png,silver,,,,,training,,,gold,val,,,,,0.0,0.0,0.0,0.0,4.0,1.0,9.0,1.0,,,,,,,,,0.0,training_resp,,602.6282395430608,1.848229361639824,9.0,,left,gold,0.0,121.0,1.0,right,2022_Jun_17_1427,habits_v_MRI,5.0,40.0,1.0,5.0,30.0,15.0,5.0,15.0,30.0,30.0,60.0,RR,60.09742120820547,
25.0,1.0,resp2,stim/left_resp_img.png,"[0.5, 0]",left,stim/gold_coin.png,silver,,,,,training,,,gold,val,,,,,0.0,0.0,0.0,0.0,4.0,1.0,9.0,1.0,,,,,,,,,0.0,training_resp,,603.2781885478762,2.498173967760522,9.0,,left,gold,0.0,121.0,1.0,right,2022_Jun_17_1427,habits_v_MRI,5.0,40.0,1.0,5.0,30.0,15.0,5.0,15.0,30.0,30.0,60.0,RR,60.09742120820547,
25.0,1.0,resp2,stim/left_resp_img.png,"[0.5, 0]",left,stim/gold_coin.png,silver,,,,,training,,,gold,val,,,,,0.0,0.0,0.0,0.0,4.0,1.0,9.0,1.0,,,,,,,,,0.0,training_resp,,609.1111390019068,8.331170461140573,9.0,,left,gold,0.0,121.0,1.0,right,2022_Jun_17_1427,habits_v_MRI,5.0,40.0,1.0,5.0,30.0,15.0,5.0,15.0,30.0,30.0,60.0,RR,60.09742120820547,
25.0,1.0,resp2,stim/left_resp_img.png,"[0.5, 0]",left,stim/gold_coin.png,silver,,,,,training,,,gold,val,,,,,0.0,0.0,0.0,0.0,4.0,1.0,9.0,1.0,,,,,,,,,0.0,training_resp,,609.727556401107,8.947698706761003,9.0,,left,gold,0.0,121.0,1.0,right,2022_Jun_17_1427,habits_v_MRI,5.0,40.0,1.0,5.0,30.0,15.0,5.0,15.0,30.0,30.0,60.0,RR,60.09742120820547,
25.0,1.0,resp2,stim/left_resp_img.png,"[0.5, 0]",left,stim/gold_coin.png,silver,,,,,training,,,gold,val,,,,,0.0,0.0,0.0,0.0,4.0,1.0,9.0,1.0,,,,,,,,,0.0,training_resp,,610.3275148777175,9.547662755008789,9.0,,left,gold,0.0,121.0,1.0,right,2022_Jun_17_1427,habits_v_MRI,5.0,40.0,1.0,5.0,30.0,15.0,5.0,15.0,30.0,30.0,60.0,RR,60.09742120820547,
25.0,1.0,resp2,stim/left_resp_img.png,"[0.5, 0]",left,stim/gold_coin.png,silver,,,,,training,,,gold,val,,,,,0.0,0.0,0.0,0.0,4.0,1.0,9.0,1.0,,,,,,,,,0.0,training_resp,,617.577109467471,16.797196056693792,9.0,,left,gold,0.0,121.0,1.0,right,2022_Jun_17_1427,habits_v_MRI,5.0,40.0,1.0,5.0,30.0,15.0,5.0,15.0,30.0,30.0,60.0,RR,60.09742120820547,
25.0,1.0,resp2,stim/left_resp_img.png,"[0.5, 0]",left,stim/gold_coin.png,silver,,,,,training,,,gold,val,,,,,0.0,0.0,0.0,0.0,4.0,1.0,9.0,1.0,,,,,,,,,0.0,training_resp,,618.2103722853353,17.430470604333095,9.0,,left,gold,0.0,121.0,1.0,right,2022_Jun_17_1427,habits_v_MRI,5.0,40.0,1.0,5.0,30.0,15.0,5.0,15.0,30.0,30.0,60.0,RR,60.09742120820547,
25.0,1.0,resp2,stim/left_resp_img.png,"[0.5, 0]",left,stim/gold_coin.png,silver,,,,,training,,,gold,val,,,,,0.0,0.0,0.0,0.0,4.0,1.0,9.0,1.0,,,,,,,,,0.0,training_resp,,618.9102596208686,18.13041541574057,9.0,,left,gold,0.0,121.0,1.0,right,2022_Jun_17_1427,habits_v_MRI,5.0,40.0,1.0,5.0,30.0,15.0,5.0,15.0,30.0,30.0,60.0,RR,60.09742120820547,
25.0,1.0,resp2,stim/left_resp_img.png,"[0.5, 0]",left,stim/gold_coin.png,silver,,,,,training,,,gold,val,,,,,0.0,0.0,0.0,0.0,4.0,1.0,9.0,1.0,,,,,,,,,0.0,training_resp,,624.6932368481066,23.91333223466063,9.0,,left,gold,0.0,121.0,1.0,right,2022_Jun_17_1427,habits_v_MRI,5.0,40.0,1.0,5.0,30.0,15.0,5.0,15.0,30.0,30.0,60.0,RR,60.09742120820547,
25.0,1.0,resp2,stim/left_resp_img.png,"[0.5, 0]",left,stim/gold_coin.png,silver,,,,,training,,,gold,val,,,,,0.0,0.0,0.0,0.0,4.0,1.0,9.0,1.0,,,,,,,,,0.0,training_resp,,625.1931538599893,24.413299391279,9.0,,left,gold,0.0,121.0,1.0,right,2022_Jun_17_1427,habits_v_MRI,5.0,40.0,1.0,5.0,30.0,15.0,5.0,15.0,30.0,30.0,60.0,RR,60.09742120820547,
25.0,1.0,resp2,stim/left_resp_img.png,"[0.5, 0]",left,stim/gold_coin.png,silver,,,,,training,,,gold,val,,,,,0.0,0.0,0.0,0.0,4.0,1.0,9.0,1.0,,,,,,,,,0.0,training_resp,,625.6764890798368,24.896630798990373,9.0,,left,gold,0.0,121.0,1.0,right,2022_Jun_17_1427,habits_v_MRI,5.0,40.0,1.0,5.0,30.0,15.0,5.0,15.0,30.0,30.0,60.0,RR,60.09742120820547,
25.0,1.0,resp2,stim/left_resp_img.png,"[0.5, 0]",left,stim/gold_coin.png,silver,,,,,training,,,gold,val,,,,,0.0,0.0,0.0,0.0,4.0,1.0,9.0,1.0,,,,,,,,,0.0,training_resp,,632.4760393017787,31.696134981524665,9.0,,left,gold,0.0,121.0,1.0,right,2022_Jun_17_1427,habits_v_MRI,5.0,40.0,1.0,5.0,30.0,15.0,5.0,15.0,30.0,30.0,60.0,RR,60.09742120820547,
25.0,1.0,resp2,stim/left_resp_img.png,"[0.5, 0]",left,stim/gold_coin.png,silver,,,,,training,,,gold,val,,,,,0.0,0.0,0.0,0.0,4.0,1.0,9.0,1.0,,,,,,,,,0.0,training_resp,,633.0759643485071,32.29609492432792,9.0,,left,gold,0.0,121.0,1.0,right,2022_Jun_17_1427,habits_v_MRI,5.0,40.0,1.0,5.0,30.0,15.0,5.0,15.0,30.0,30.0,60.0,RR,60.09742120820547,
25.0,1.0,resp2,stim/left_resp_img.png,"[0.5, 0]",left,stim/gold_coin.png,silver,,,,,training,,,gold,val,,,,,0.0,0.0,0.0,0.0,4.0,1.0,9.0,1.0,,,,,,,,,0.0,training_resp,,633.7758968436974,32.996060556091834,9.0,,left,gold,0.0,121.0,1.0,right,2022_Jun_17_1427,habits_v_MRI,5.0,40.0,1.0,5.0,30.0,15.0,5.0,15.0,30.0,30.0,60.0,RR,60.09742120820547,
25.0,1.0,resp2,stim/left_resp_img.png,"[0.5, 0]",left,stim/gold_coin.png,silver,,,,,training,,,gold,val,,,,,0.0,0.0,0.0,0.0,4.0,1.0,9.0,1.0,,,,,,,,,0.0,training_resp,,641.925718580489,41.14559725945583,9.0,,left,gold,0.0,121.0,1.0,right,2022_Jun_17_1427,habits_v_MRI,5.0,40.0,1.0,5.0,30.0,15.0,5.0,15.0,30.0,30.0,60.0,RR,60.09742120820547,
25.0,1.0,resp2,stim/left_resp_img.png,"[0.5, 0]",left,stim/gold_coin.png,silver,,,,,training,,,gold,val,,,,,0.0,0.0,0.0,0.0,4.0,1.0,9.0,1.0,,,,,,,,,0.0,training_resp,,642.5587230501114,41.77886476920685,9.0,,left,gold,0.0,121.0,1.0,right,2022_Jun_17_1427,habits_v_MRI,5.0,40.0,1.0,5.0,30.0,15.0,5.0,15.0,30.0,30.0,60.0,RR,60.09742120820547,
25.0,1.0,resp2,stim/left_resp_img.png,"[0.5, 0]",left,stim/gold_coin.png,silver,,,,,training,,,gold,val,,,,,0.0,0.0,0.0,0.0,4.0,1.0,9.0,1.0,,,,,,,,,0.0,training_resp,,643.2922504916205,42.512142953055445,9.0,,left,gold,0.0,121.0,1.0,right,2022_Jun_17_1427,habits_v_MRI,5.0,40.0,1.0,5.0,30.0,15.0,5.0,15.0,30.0,30.0,60.0,RR,60.09742120820547,
25.0,1.0,resp2,stim/left_resp_img.png,"[0.5, 0]",left,stim/gold_coin.png,silver,,,,,training,,,gold,val,,,,,0.0,0.0,0.0,0.0,4.0,1.0,9.0,1.0,,,,,,,,,0.0,training_resp,,650.7915769094834,50.01157757808687,9.0,,left,gold,0.0,121.0,1.0,right,2022_Jun_17_1427,habits_v_MRI,5.0,40.0,1.0,5.0,30.0,15.0,5.0,15.0,30.0,30.0,60.0,RR,60.09742120820547,
25.0,1.0,resp2,stim/left_resp_img.png,"[0.5, 0]",left,stim/gold_coin.png,silver,,,,,training,,,gold,val,,,,,0.0,0.0,0.0,0.0,4.0,1.0,9.0,1.0,,,,,,,,,0.0,training_resp,,651.4080570630031,50.62819291721098,9.0,23.0,left,gold,1.0,121.0,1.0,right,2022_Jun_17_1427,habits_v_MRI,5.0,40.0,1.0,5.0,30.0,15.0,5.0,15.0,30.0,30.0,60.0,RR,60.09742120820547,
25.0,1.0,resp2,stim/left_resp_img.png,"[0.5, 0]",left,stim/gold_coin.png,silver,,,,,training,,,gold,val,,,,,0.0,0.0,0.0,0.0,4.0,1.0,9.0,1.0,,,,,,,,,0.0,ITI_start,25.0,652.9590240946854,52.17810749512864,,,,,,121.0,1.0,right,2022_Jun_17_1427,habits_v_MRI,5.0,40.0,1.0,5.0,30.0,15.0,5.0,15.0,30.0,30.0,60.0,RR,60.09742120820547,
25.0,2.0,resp1_vs_resp2,,,,,silver,,,,,consumption,right,left,,,gold,silver,val,val,0.0,0.0,0.0,0.0,,,,,,,,,,,,,0.0,piggy_getting_full_msg,7.0,677.9717268511304,,,,,,,121.0,1.0,right,2022_Jun_17_1427,habits_v_MRI,5.0,40.0,1.0,5.0,30.0,15.0,5.0,15.0,30.0,30.0,60.0,RR,60.09742120820547,
25.0,2.0,resp1_vs_resp2,,,,,silver,,,,,consumption,right,left,,,gold,silver,val,val,0.0,0.0,0.0,0.0,,,,,,,,,,,,,0.0,instr_before_consumption,7.0,684.9877907736809,,,,,,,121.0,1.0,right,2022_Jun_17_1427,habits_v_MRI,5.0,40.0,1.0,5.0,30.0,15.0,5.0,15.0,30.0,30.0,60.0,RR,60.09742120820547,
25.0,2.0,resp1_vs_resp2,,,,,silver,,,,,consumption,right,left,,,gold,silver,val,val,0.0,0.0,0.0,0.0,,,,,,,,,,,,,0.0,consumption_start,15.0,692.0047306169872,0.0,,,,,,121.0,1.0,right,2022_Jun_17_1427,habits_v_MRI,5.0,40.0,1.0,5.0,30.0,15.0,5.0,15.0,30.0,30.0,60.0,RR,60.09742120820547,
25.0,2.0,resp1_vs_resp2,,,,,silver,,,,,consumption,right,left,,,gold,silver,val,val,0.0,0.0,0.0,0.0,,,,,,,,,,,,,0.0,consumption_resp,,692.7370727650123,0.731689679552801,,,left,silver,,121.0,1.0,right,2022_Jun_17_1427,habits_v_MRI,5.0,40.0,1.0,5.0,30.0,15.0,5.0,15.0,30.0,30.0,60.0,RR,60.09742120820547,
25.0,2.0,resp1_vs_resp2,,,,,silver,,,,,consumption,right,left,,,gold,silver,val,val,0.0,0.0,0.0,0.0,,,,,,,,,,,,,0.0,consumption_resp,,693.0034271460609,0.998383637459483,,,left,silver,,121.0,1.0,right,2022_Jun_17_1427,habits_v_MRI,5.0,40.0,1.0,5.0,30.0,15.0,5.0,15.0,30.0,30.0,60.0,RR,60.09742120820547,
25.0,2.0,resp1_vs_resp2,,,,,silver,,,,,consumption,right,left,,,gold,silver,val,val,0.0,0.0,0.0,0.0,,,,,,,,,,,,,0.0,consumption_resp,,693.2868219531956,1.2816593874013051,,,left,silver,,121.0,1.0,right,2022_Jun_17_1427,habits_v_MRI,5.0,40.0,1.0,5.0,30.0,15.0,5.0,15.0,30.0,30.0,60.0,RR,60.09742120820547,
25.0,2.0,resp1_vs_resp2,,,,,silver,,,,,consumption,right,left,,,gold,silver,val,val,0.0,0.0,0.0,0.0,,,,,,,,,,,,,0.0,consumption_resp,,693.5366801695782,1.5316404731129296,,,left,silver,,121.0,1.0,right,2022_Jun_17_1427,habits_v_MRI,5.0,40.0,1.0,5.0,30.0,15.0,5.0,15.0,30.0,30.0,60.0,RR,60.09742120820547,
25.0,2.0,resp1_vs_resp2,,,,,silver,,,,,consumption,right,left,,,gold,silver,val,val,0.0,0.0,0.0,0.0,,,,,,,,,,,,,0.0,consumption_resp,,693.8033019893919,1.7982581875403412,,,left,silver,,121.0,1.0,right,2022_Jun_17_1427,habits_v_MRI,5.0,40.0,1.0,5.0,30.0,15.0,5.0,15.0,30.0,30.0,60.0,RR,60.09742120820547,
25.0,2.0,resp1_vs_resp2,,,,,silver,,,,,consumption,right,left,,,gold,silver,val,val,0.0,0.0,0.0,0.0,,,,,,,,,,,,,0.0,consumption_resp,,694.0868583741249,2.081819850660395,,,left,silver,,121.0,1.0,right,2022_Jun_17_1427,habits_v_MRI,5.0,40.0,1.0,5.0,30.0,15.0,5.0,15.0,30.0,30.0,60.0,RR,60.09742120820547,
25.0,2.0,resp1_vs_resp2,,,,,silver,,,,,consumption,right,left,,,gold,silver,val,val,0.0,0.0,0.0,0.0,,,,,,,,,,,,,0.0,consumption_resp,,694.3535098116263,2.348464836832136,,,left,silver,,121.0,1.0,right,2022_Jun_17_1427,habits_v_MRI,5.0,40.0,1.0,5.0,30.0,15.0,5.0,15.0,30.0,30.0,60.0,RR,60.09742120820547,
25.0,2.0,resp1_vs_resp2,,,,,silver,,,,,consumption,right,left,,,gold,silver,val,val,0.0,0.0,0.0,0.0,,,,,,,,,,,,,0.0,consumption_resp,,694.6033735996461,2.5985069173621014,,,left,silver,,121.0,1.0,right,2022_Jun_17_1427,habits_v_MRI,5.0,40.0,1.0,5.0,30.0,15.0,5.0,15.0,30.0,30.0,60.0,RR,60.09742120820547,
25.0,2.0,resp1_vs_resp2,,,,,silver,,,,,consumption,right,left,,,gold,silver,val,val,0.0,0.0,0.0,0.0,,,,,,,,,,,,,0.0,consumption_resp,,694.8535162630142,2.8484707017196342,,,left,silver,,121.0,1.0,right,2022_Jun_17_1427,habits_v_MRI,5.0,40.0,1.0,5.0,30.0,15.0,5.0,15.0,30.0,30.0,60.0,RR,60.09742120820547,
25.0,2.0,resp1_vs_resp2,,,,,silver,,,,,consumption,right,left,,,gold,silver,val,val,0.0,0.0,0.0,0.0,,,,,,,,,,,,,0.0,consumption_resp,,695.1368090211181,3.13176785846008,,,left,silver,,121.0,1.0,right,2022_Jun_17_1427,habits_v_MRI,5.0,40.0,1.0,5.0,30.0,15.0,5.0,15.0,30.0,30.0,60.0,RR,60.09742120820547,
25.0,2.0,resp1_vs_resp2,,,,,silver,,,,,consumption,right,left,,,gold,silver,val,val,0.0,0.0,0.0,0.0,,,,,,,,,,,,,0.0,instr_after_consumption,3.0,707.0019893692806,14.99767603899818,,,,,,121.0,1.0,right,2022_Jun_17_1427,habits_v_MRI,5.0,40.0,1.0,5.0,30.0,15.0,5.0,15.0,30.0,30.0,60.0,RR,60.09742120820547,
25.0,2.0,resp1_vs_resp2,,,,,silver,,,,,consumption,right,left,,,gold,silver,val,val,0.0,0.0,0.0,0.0,,,,,,,,,,,,,0.0,rest_after_block,3.0,710.0193872601376,,,,,,,121.0,1.0,right,2022_Jun_17_1427,habits_v_MRI,5.0,40.0,1.0,5.0,30.0,15.0,5.0,15.0,30.0,30.0,60.0,RR,60.09742120820547,
25.0,0.0,resp1,stim/right_resp_img.png,"[-0.5, 0]",right,stim/silver_coin.png,silver,,,,,training,,,silver,deval,,,,,0.0,1.0,1.0,1.0,0.0,0.0,0.0,0.0,,,,,,,,,1.0,instr_before_block,6.0,0.0039453087956644,,,,,,,121.0,1.0,right,2022_Jun_17_1427,habits_v_MRI,5.0,40.0,1.0,5.0,30.0,15.0,5.0,15.0,30.0,30.0,60.0,RR,60.09742120820547,
25.0,0.0,resp1,stim/right_resp_img.png,"[-0.5, 0]",right,stim/silver_coin.png,silver,,,,,training,,,silver,deval,,,,,0.0,1.0,1.0,1.0,0.0,0.0,0.0,0.0,,,,,,,,,1.0,training_period_start,60.0,6.046609421493486,0.0,10.0,12.0,,,,121.0,1.0,right,2022_Jun_17_1427,habits_v_MRI,5.0,40.0,1.0,5.0,30.0,15.0,5.0,15.0,30.0,30.0,60.0,RR,60.09742120820547,
25.0,0.0,resp1,stim/right_resp_img.png,"[-0.5, 0]",right,stim/silver_coin.png,silver,,,,,training,,,silver,deval,,,,,0.0,1.0,1.0,1.0,0.0,0.0,0.0,0.0,,,,,,,,,1.0,training_resp,,7.509537477511913,1.4819807244930416,10.0,,right,silver,0.0,121.0,1.0,right,2022_Jun_17_1427,habits_v_MRI,5.0,40.0,1.0,5.0,30.0,15.0,5.0,15.0,30.0,30.0,60.0,RR,60.09742120820547,
25.0,0.0,resp1,stim/right_resp_img.png,"[-0.5, 0]",right,stim/silver_coin.png,silver,,,,,training,,,silver,deval,,,,,0.0,1.0,1.0,1.0,0.0,0.0,0.0,0.0,,,,,,,,,1.0,training_resp,,14.19250520359492,8.165142871555872,10.0,,right,silver,0.0,121.0,1.0,right,2022_Jun_17_1427,habits_v_MRI,5.0,40.0,1.0,5.0,30.0,15.0,5.0,15.0,30.0,30.0,60.0,RR,60.09742120820547,
25.0,0.0,resp1,stim/right_resp_img.png,"[-0.5, 0]",right,stim/silver_coin.png,silver,,,,,training,,,silver,deval,,,,,0.0,1.0,1.0,1.0,0.0,0.0,0.0,0.0,,,,,,,,,1.0,training_resp,,20.241926544636957,14.214437237824312,10.0,,right,silver,0.0,121.0,1.0,right,2022_Jun_17_1427,habits_v_MRI,5.0,40.0,1.0,5.0,30.0,15.0,5.0,15.0,30.0,30.0,60.0,RR,60.09742120820547,
25.0,0.0,resp1,stim/right_resp_img.png,"[-0.5, 0]",right,stim/silver_coin.png,silver,,,,,training,,,silver,deval,,,,,0.0,1.0,1.0,1.0,0.0,0.0,0.0,0.0,,,,,,,,,1.0,training_resp,,25.75811275007436,19.73075393697945,10.0,,right,silver,0.0,121.0,1.0,right,2022_Jun_17_1427,habits_v_MRI,5.0,40.0,1.0,5.0,30.0,15.0,5.0,15.0,30.0,30.0,60.0,RR,60.09742120820547,
25.0,0.0,resp1,stim/right_resp_img.png,"[-0.5, 0]",right,stim/silver_coin.png,silver,,,,,training,,,silver,deval,,,,,0.0,1.0,1.0,1.0,0.0,0.0,0.0,0.0,,,,,,,,,1.0,training_resp,,31.17428769497201,25.146942664287053,10.0,,right,silver,0.0,121.0,1.0,right,2022_Jun_17_1427,habits_v_MRI,5.0,40.0,1.0,5.0,30.0,15.0,5.0,15.0,30.0,30.0,60.0,RR,60.09742120820547,
25.0,0.0,resp1,stim/right_resp_img.png,"[-0.5, 0]",right,stim/silver_coin.png,silver,,,,,training,,,silver,deval,,,,,0.0,1.0,1.0,1.0,0.0,0.0,0.0,0.0,,,,,,,,,1.0,training_resp,,36.54081110202242,30.513306839682627,10.0,,right,silver,0.0,121.0,1.0,right,2022_Jun_17_1427,habits_v_MRI,5.0,40.0,1.0,5.0,30.0,15.0,5.0,15.0,30.0,30.0,60.0,RR,60.09742120820547,
25.0,0.0,resp1,stim/right_resp_img.png,"[-0.5, 0]",right,stim/silver_coin.png,silver,,,,,training,,,silver,deval,,,,,0.0,1.0,1.0,1.0,0.0,0.0,0.0,0.0,,,,,,,,,1.0,training_resp,,37.47382794652367,31.44653540663421,10.0,,right,silver,0.0,121.0,1.0,right,2022_Jun_17_1427,habits_v_MRI,5.0,40.0,1.0,5.0,30.0,15.0,5.0,15.0,30.0,30.0,60.0,RR,60.09742120820547,
25.0,0.0,resp1,stim/right_resp_img.png,"[-0.5, 0]",right,stim/silver_coin.png,silver,,,,,training,,,silver,deval,,,,,0.0,1.0,1.0,1.0,0.0,0.0,0.0,0.0,,,,,,,,,1.0,training_resp,,42.340256635681726,36.31285618187394,10.0,,right,silver,0.0,121.0,1.0,right,2022_Jun_17_1427,habits_v_MRI,5.0,40.0,1.0,5.0,30.0,15.0,5.0,15.0,30.0,30.0,60.0,RR,60.09742120820547,
25.0,0.0,resp1,stim/right_resp_img.png,"[-0.5, 0]",right,stim/silver_coin.png,silver,,,,,training,,,silver,deval,,,,,0.0,1.0,1.0,1.0,0.0,0.0,0.0,0.0,,,,,,,,,1.0,training_resp,,42.79004793369677,36.762777387106325,10.0,,right,silver,0.0,121.0,1.0,right,2022_Jun_17_1427,habits_v_MRI,5.0,40.0,1.0,5.0,30.0,15.0,5.0,15.0,30.0,30.0,60.0,RR,60.09742120820547,
25.0,0.0,resp1,stim/right_resp_img.png,"[-0.5, 0]",right,stim/silver_coin.png,silver,,,,,training,,,silver,deval,,,,,0.0,1.0,1.0,1.0,0.0,0.0,0.0,0.0,,,,,,,,,1.0,training_resp,,48.973067270824686,42.94570581847802,10.0,,right,silver,0.0,121.0,1.0,right,2022_Jun_17_1427,habits_v_MRI,5.0,40.0,1.0,5.0,30.0,15.0,5.0,15.0,30.0,30.0,60.0,RR,60.09742120820547,
25.0,0.0,resp1,stim/right_resp_img.png,"[-0.5, 0]",right,stim/silver_coin.png,silver,,,,,training,,,silver,deval,,,,,0.0,1.0,1.0,1.0,0.0,0.0,0.0,0.0,,,,,,,,,1.0,training_resp,,49.35629445948871,43.32898960332386,10.0,,right,silver,0.0,121.0,1.0,right,2022_Jun_17_1427,habits_v_MRI,5.0,40.0,1.0,5.0,30.0,15.0,5.0,15.0,30.0,30.0,60.0,RR,60.09742120820547,
25.0,0.0,resp1,stim/right_resp_img.png,"[-0.5, 0]",right,stim/silver_coin.png,silver,,,,,training,,,silver,deval,,,,,0.0,1.0,1.0,1.0,0.0,0.0,0.0,0.0,,,,,,,,,1.0,training_resp,,55.48953469755361,49.46204187179683,10.0,16.0,right,silver,1.0,121.0,1.0,right,2022_Jun_17_1427,habits_v_MRI,5.0,40.0,1.0,5.0,30.0,15.0,5.0,15.0,30.0,30.0,60.0,RR,60.09742120820547,
25.0,0.0,resp1,stim/right_resp_img.png,"[-0.5, 0]",right,stim/silver_coin.png,silver,,,,,training,,,silver,deval,,,,,0.0,1.0,1.0,1.0,0.0,0.0,0.0,0.0,,,,,,,,,1.0,training_resp,,62.8222007045988,56.794790866959374,10.0,,right,silver,0.0,121.0,1.0,right,2022_Jun_17_1427,habits_v_MRI,5.0,40.0,1.0,5.0,30.0,15.0,5.0,15.0,30.0,30.0,60.0,RR,60.09742120820547,
25.0,0.0,resp1,stim/right_resp_img.png,"[-0.5, 0]",right,stim/silver_coin.png,silver,,,,,training,,,silver,deval,,,,,0.0,1.0,1.0,1.0,0.0,0.0,0.0,0.0,,,,,,,,,1.0,training_resp,,63.2886705652345,57.26138447673293,10.0,,right,silver,0.0,121.0,1.0,right,2022_Jun_17_1427,habits_v_MRI,5.0,40.0,1.0,5.0,30.0,15.0,5.0,15.0,30.0,30.0,60.0,RR,60.09742120820547,
25.0,0.0,resp1,stim/right_resp_img.png,"[-0.5, 0]",right,stim/silver_coin.png,silver,,,,,training,,,silver,deval,,,,,0.0,1.0,1.0,1.0,0.0,0.0,0.0,0.0,,,,,,,,,1.0,ITI_start,28.333333333333336,65.70603608194506,59.677909555262886,,,,,,121.0,1.0,right,2022_Jun_17_1427,habits_v_MRI,5.0,40.0,1.0,5.0,30.0,15.0,5.0,15.0,30.0,30.0,60.0,RR,60.09742120820547,
25.0,1.0,resp2,stim/left_resp_img.png,"[0.5, 0]",left,stim/gold_coin.png,silver,,,,,training,,,gold,val,,,,,0.0,1.0,1.0,1.0,0.0,1.0,1.0,1.0,,,,,,,,,1.0,training_period_start,37.5,94.07491306774318,0.0,11.0,22.0,,,,121.0,1.0,right,2022_Jun_17_1427,habits_v_MRI,5.0,40.0,1.0,5.0,30.0,15.0,5.0,15.0,30.0,30.0,60.0,RR,60.09742120820547,
25.0,1.0,resp2,stim/left_resp_img.png,"[0.5, 0]",left,stim/gold_coin.png,silver,,,,,training,,,gold,val,,,,,0.0,1.0,1.0,1.0,0.0,1.0,1.0,1.0,,,,,,,,,1.0,training_resp,,95.16990486567374,1.1148992734961212,11.0,,left,gold,0.0,121.0,1.0,right,2022_Jun_17_1427,habits_v_MRI,5.0,40.0,1.0,5.0,30.0,15.0,5.0,15.0,30.0,30.0,60.0,RR,60.09742120820547,
25.0,1.0,resp2,stim/left_resp_img.png,"[0.5, 0]",left,stim/gold_coin.png,silver,,,,,training,,,gold,val,,,,,0.0,1.0,1.0,1.0,0.0,1.0,1.0,1.0,,,,,,,,,1.0,training_resp,,95.56984756572638,1.514895637286827,11.0,,left,gold,0.0,121.0,1.0,right,2022_Jun_17_1427,habits_v_MRI,5.0,40.0,1.0,5.0,30.0,15.0,5.0,15.0,30.0,30.0,60.0,RR,60.09742120820547,
25.0,1.0,resp2,stim/left_resp_img.png,"[0.5, 0]",left,stim/gold_coin.png,silver,,,,,training,,,gold,val,,,,,0.0,1.0,1.0,1.0,0.0,1.0,1.0,1.0,,,,,,,,,1.0,training_resp,,100.40289830934488,6.347878934699111,11.0,,left,gold,0.0,121.0,1.0,right,2022_Jun_17_1427,habits_v_MRI,5.0,40.0,1.0,5.0,30.0,15.0,5.0,15.0,30.0,30.0,60.0,RR,60.09742120820547,
25.0,1.0,resp2,stim/left_resp_img.png,"[0.5, 0]",left,stim/gold_coin.png,silver,,,,,training,,,gold,val,,,,,0.0,1.0,1.0,1.0,0.0,1.0,1.0,1.0,,,,,,,,,1.0,training_resp,,100.83607819769531,6.781128321948927,11.0,,left,gold,0.0,121.0,1.0,right,2022_Jun_17_1427,habits_v_MRI,5.0,40.0,1.0,5.0,30.0,15.0,5.0,15.0,30.0,30.0,60.0,RR,60.09742120820547,
25.0,1.0,resp2,stim/left_resp_img.png,"[0.5, 0]",left,stim/gold_coin.png,silver,,,,,training,,,gold,val,,,,,0.0,1.0,1.0,1.0,0.0,1.0,1.0,1.0,,,,,,,,,1.0,training_resp,,107.16899404890135,13.114044466405176,11.0,,left,gold,0.0,121.0,1.0,right,2022_Jun_17_1427,habits_v_MRI,5.0,40.0,1.0,5.0,30.0,15.0,5.0,15.0,30.0,30.0,60.0,RR,60.09742120820547,
25.0,1.0,resp2,stim/left_resp_img.png,"[0.5, 0]",left,stim/gold_coin.png,silver,,,,,training,,,gold,val,,,,,0.0,1.0,1.0,1.0,0.0,1.0,1.0,1.0,,,,,,,,,1.0,training_resp,,107.56886607711203,13.51396634610137,11.0,,left,gold,0.0,121.0,1.0,right,2022_Jun_17_1427,habits_v_MRI,5.0,40.0,1.0,5.0,30.0,15.0,5.0,15.0,30.0,30.0,60.0,RR,60.09742120820547,
25.0,1.0,resp2,stim/left_resp_img.png,"[0.5, 0]",left,stim/gold_coin.png,silver,,,,,training,,,gold,val,,,,,0.0,1.0,1.0,1.0,0.0,1.0,1.0,1.0,,,,,,,,,1.0,training_resp,,113.60195048514288,19.54693404288264,11.0,,left,gold,0.0,121.0,1.0,right,2022_Jun_17_1427,habits_v_MRI,5.0,40.0,1.0,5.0,30.0,15.0,5.0,15.0,30.0,30.0,60.0,RR,60.09742120820547,
25.0,1.0,resp2,stim/left_resp_img.png,"[0.5, 0]",left,stim/gold_coin.png,silver,,,,,training,,,gold,val,,,,,0.0,1.0,1.0,1.0,0.0,1.0,1.0,1.0,,,,,,,,,1.0,training_resp,,113.96853283426026,19.9135873572086,11.0,,left,gold,0.0,121.0,1.0,right,2022_Jun_17_1427,habits_v_MRI,5.0,40.0,1.0,5.0,30.0,15.0,5.0,15.0,30.0,30.0,60.0,RR,60.09742120820547,
25.0,1.0,resp2,stim/left_resp_img.png,"[0.5, 0]",left,stim/gold_coin.png,silver,,,,,training,,,gold,val,,,,,0.0,1.0,1.0,1.0,0.0,1.0,1.0,1.0,,,,,,,,,1.0,training_resp,,119.4016136060818,25.346615638234653,11.0,,left,gold,0.0,121.0,1.0,right,2022_Jun_17_1427,habits_v_MRI,5.0,40.0,1.0,5.0,30.0,15.0,5.0,15.0,30.0,30.0,60.0,RR,60.09742120820547,
25.0,1.0,resp2,stim/left_resp_img.png,"[0.5, 0]",left,stim/gold_coin.png,silver,,,,,training,,,gold,val,,,,,0.0,1.0,1.0,1.0,0.0,1.0,1.0,1.0,,,,,,,,,1.0,training_resp,,119.85176207567564,25.7965394827188,11.0,,left,gold,0.0,121.0,1.0,right,2022_Jun_17_1427,habits_v_MRI,5.0,40.0,1.0,5.0,30.0,15.0,5.0,15.0,30.0,30.0,60.0,RR,60.09742120820547,
25.0,1.0,resp2,stim/left_resp_img.png,"[0.5, 0]",left,stim/gold_coin.png,silver,,,,,training,,,gold,val,,,,,0.0,1.0,1.0,1.0,0.0,1.0,1.0,1.0,,,,,,,,,1.0,training_resp,,126.43442324420904,32.37938275595661,11.0,,left,gold,0.0,121.0,1.0,right,2022_Jun_17_1427,habits_v_MRI,5.0,40.0,1.0,5.0,30.0,15.0,5.0,15.0,30.0,30.0,60.0,RR,60.09742120820547,
25.0,1.0,resp2,stim/left_resp_img.png,"[0.5, 0]",left,stim/gold_coin.png,silver,,,,,training,,,gold,val,,,,,0.0,1.0,1.0,1.0,0.0,1.0,1.0,1.0,,,,,,,,,1.0,training_resp,,126.8676298178034,32.81270252185641,11.0,,left,gold,0.0,121.0,1.0,right,2022_Jun_17_1427,habits_v_MRI,5.0,40.0,1.0,5.0,30.0,15.0,5.0,15.0,30.0,30.0,60.0,RR,60.09742120820547,
25.0,1.0,resp2,stim/left_resp_img.png,"[0.5, 0]",left,stim/gold_coin.png,silver,,,,,training,,,gold,val,,,,,0.0,1.0,1.0,1.0,0.0,1.0,1.0,1.0,,,,,,,,,1.0,ITI_start,16.666666666666668,131.23489425319713,37.1791118568508,,,,,,121.0,1.0,right,2022_Jun_17_1427,habits_v_MRI,5.0,40.0,1.0,5.0,30.0,15.0,5.0,15.0,30.0,30.0,60.0,RR,60.09742120820547,
25.0,0.0,resp1,stim/right_resp_img.png,"[-0.5, 0]",right,stim/silver_coin.png,silver,,,,,training,,,silver,deval,,,,,0.0,1.0,1.0,1.0,1.0,0.0,2.0,0.0,,,,,,,,,1.0,training_period_start,52.5,147.93701874947874,0.0,12.0,11.0,,,,121.0,1.0,right,2022_Jun_17_1427,habits_v_MRI,5.0,40.0,1.0,5.0,30.0,15.0,5.0,15.0,30.0,30.0,60.0,RR,60.09742120820547,
25.0,0.0,resp1,stim/right_resp_img.png,"[-0.5, 0]",right,stim/silver_coin.png,silver,,,,,training,,,silver,deval,,,,,0.0,1.0,1.0,1.0,1.0,0.0,2.0,0.0,,,,,,,,,1.0,training_resp,,149.64951412350638,1.7315272221458144,12.0,,right,silver,0.0,121.0,1.0,right,2022_Jun_17_1427,habits_v_MRI,5.0,40.0,1.0,5.0,30.0,15.0,5.0,15.0,30.0,30.0,60.0,RR,60.09742120820547,
25.0,0.0,resp1,stim/right_resp_img.png,"[-0.5, 0]",right,stim/silver_coin.png,silver,,,,,training,,,silver,deval,,,,,0.0,1.0,1.0,1.0,1.0,0.0,2.0,0.0,,,,,,,,,1.0,training_resp,,155.5991350466502,7.681162807508372,12.0,,right,silver,0.0,121.0,1.0,right,2022_Jun_17_1427,habits_v_MRI,5.0,40.0,1.0,5.0,30.0,15.0,5.0,15.0,30.0,30.0,60.0,RR,60.09742120820547,
25.0,0.0,resp1,stim/right_resp_img.png,"[-0.5, 0]",right,stim/silver_coin.png,silver,,,,,training,,,silver,deval,,,,,0.0,1.0,1.0,1.0,1.0,0.0,2.0,0.0,,,,,,,,,1.0,training_resp,,161.13202884583734,13.214077133801766,12.0,,right,silver,0.0,121.0,1.0,right,2022_Jun_17_1427,habits_v_MRI,5.0,40.0,1.0,5.0,30.0,15.0,5.0,15.0,30.0,30.0,60.0,RR,60.09742120820547,
25.0,0.0,resp1,stim/right_resp_img.png,"[-0.5, 0]",right,stim/silver_coin.png,silver,,,,,training,,,silver,deval,,,,,0.0,1.0,1.0,1.0,1.0,0.0,2.0,0.0,,,,,,,,,1.0,training_resp,,161.64886986580677,13.730735755816568,12.0,,right,silver,0.0,121.0,1.0,right,2022_Jun_17_1427,habits_v_MRI,5.0,40.0,1.0,5.0,30.0,15.0,5.0,15.0,30.0,30.0,60.0,RR,60.09742120820547,
25.0,0.0,resp1,stim/right_resp_img.png,"[-0.5, 0]",right,stim/silver_coin.png,silver,,,,,training,,,silver,deval,,,,,0.0,1.0,1.0,1.0,1.0,0.0,2.0,0.0,,,,,,,,,1.0,training_resp,,166.81491123785963,18.896967736654915,12.0,,right,silver,0.0,121.0,1.0,right,2022_Jun_17_1427,habits_v_MRI,5.0,40.0,1.0,5.0,30.0,15.0,5.0,15.0,30.0,30.0,60.0,RR,60.09742120820547,
25.0,0.0,resp1,stim/right_resp_img.png,"[-0.5, 0]",right,stim/silver_coin.png,silver,,,,,training,,,silver,deval,,,,,0.0,1.0,1.0,1.0,1.0,0.0,2.0,0.0,,,,,,,,,1.0,training_resp,,172.33125667495187,24.41328619531123,12.0,,right,silver,0.0,121.0,1.0,right,2022_Jun_17_1427,habits_v_MRI,5.0,40.0,1.0,5.0,30.0,15.0,5.0,15.0,30.0,30.0,60.0,RR,60.09742120820547,
25.0,0.0,resp1,stim/right_resp_img.png,"[-0.5, 0]",right,stim/silver_coin.png,silver,,,,,training,,,silver,deval,,,,,0.0,1.0,1.0,1.0,1.0,0.0,2.0,0.0,,,,,,,,,1.0,training_resp,,178.09778846881818,30.17956140037859,12.0,,right,silver,0.0,121.0,1.0,right,2022_Jun_17_1427,habits_v_MRI,5.0,40.0,1.0,5.0,30.0,15.0,5.0,15.0,30.0,30.0,60.0,RR,60.09742120820547,
25.0,0.0,resp1,stim/right_resp_img.png,"[-0.5, 0]",right,stim/silver_coin.png,silver,,,,,training,,,silver,deval,,,,,0.0,1.0,1.0,1.0,1.0,0.0,2.0,0.0,,,,,,,,,1.0,training_resp,,178.46412889141357,30.546207676816262,12.0,,right,silver,0.0,121.0,1.0,right,2022_Jun_17_1427,habits_v_MRI,5.0,40.0,1.0,5.0,30.0,15.0,5.0,15.0,30.0,30.0,60.0,RR,60.09742120820547,
25.0,0.0,resp1,stim/right_resp_img.png,"[-0.5, 0]",right,stim/silver_coin.png,silver,,,,,training,,,silver,deval,,,,,0.0,1.0,1.0,1.0,1.0,0.0,2.0,0.0,,,,,,,,,1.0,training_resp,,183.59727793047205,35.67919425852597,12.0,,right,silver,0.0,121.0,1.0,right,2022_Jun_17_1427,habits_v_MRI,5.0,40.0,1.0,5.0,30.0,15.0,5.0,15.0,30.0,30.0,60.0,RR,60.09742120820547,
25.0,0.0,resp1,stim/right_resp_img.png,"[-0.5, 0]",right,stim/silver_coin.png,silver,,,,,training,,,silver,deval,,,,,0.0,1.0,1.0,1.0,1.0,0.0,2.0,0.0,,,,,,,,,1.0,training_resp,,189.1634265126777,41.24545075459173,12.0,,right,silver,0.0,121.0,1.0,right,2022_Jun_17_1427,habits_v_MRI,5.0,40.0,1.0,5.0,30.0,15.0,5.0,15.0,30.0,30.0,60.0,RR,60.09742120820547,
25.0,0.0,resp1,stim/right_resp_img.png,"[-0.5, 0]",right,stim/silver_coin.png,silver,,,,,training,,,silver,deval,,,,,0.0,1.0,1.0,1.0,1.0,0.0,2.0,0.0,,,,,,,,,1.0,training_resp,,194.7297979605501,46.81175446306588,12.0,7.0,right,silver,1.0,121.0,1.0,right,2022_Jun_17_1427,habits_v_MRI,5.0,40.0,1.0,5.0,30.0,15.0,5.0,15.0,30.0,30.0,60.0,RR,60.09742120820547,
25.0,0.0,resp1,stim/right_resp_img.png,"[-0.5, 0]",right,stim/silver_coin.png,silver,,,,,training,,,silver,deval,,,,,0.0,1.0,1.0,1.0,1.0,0.0,2.0,0.0,,,,,,,,,1.0,ITI_start,25.0,200.0967914382345,52.17805881658569,,,,,,121.0,1.0,right,2022_Jun_17_1427,habits_v_MRI,5.0,40.0,1.0,5.0,30.0,15.0,5.0,15.0,30.0,30.0,60.0,RR,60.09742120820547,
25.0,1.0,resp2,stim/left_resp_img.png,"[0.5, 0]",left,stim/gold_coin.png,silver,,,,,training,,,gold,val,,,,,0.0,1.0,1.0,1.0,1.0,1.0,3.0,1.0,,,,,,,,,1.0,training_period_start,30.0,225.13182504108408,0.0,13.0,13.0,,,,121.0,1.0,right,2022_Jun_17_1427,habits_v_MRI,5.0,40.0,1.0,5.0,30.0,15.0,5.0,15.0,30.0,30.0,60.0,RR,60.09742120820547,
25.0,1.0,resp2,stim/left_resp_img.png,"[0.5, 0]",left,stim/gold_coin.png,silver,,,,,training,,,gold,val,,,,,0.0,1.0,1.0,1.0,1.0,1.0,3.0,1.0,,,,,,,,,1.0,training_resp,,226.3775124438107,1.2647336198133416,13.0,,left,gold,0.0,121.0,1.0,right,2022_Jun_17_1427,habits_v_MRI,5.0,40.0,1.0,5.0,30.0,15.0,5.0,15.0,30.0,30.0,60.0,RR,60.09742120820547,
25.0,1.0,resp2,stim/left_resp_img.png,"[0.5, 0]",left,stim/gold_coin.png,silver,,,,,training,,,gold,val,,,,,0.0,1.0,1.0,1.0,1.0,1.0,3.0,1.0,,,,,,,,,1.0,training_resp,,226.76086660724832,1.6480440899031237,13.0,,left,gold,0.0,121.0,1.0,right,2022_Jun_17_1427,habits_v_MRI,5.0,40.0,1.0,5.0,30.0,15.0,5.0,15.0,30.0,30.0,60.0,RR,60.09742120820547,
25.0,1.0,resp2,stim/left_resp_img.png,"[0.5, 0]",left,stim/gold_coin.png,silver,,,,,training,,,gold,val,,,,,0.0,1.0,1.0,1.0,1.0,1.0,3.0,1.0,,,,,,,,,1.0,training_resp,,232.1772084081313,7.064352460904047,13.0,,left,gold,0.0,121.0,1.0,right,2022_Jun_17_1427,habits_v_MRI,5.0,40.0,1.0,5.0,30.0,15.0,5.0,15.0,30.0,30.0,60.0,RR,60.09742120820547,
25.0,1.0,resp2,stim/left_resp_img.png,"[0.5, 0]",left,stim/gold_coin.png,silver,,,,,training,,,gold,val,,,,,0.0,1.0,1.0,1.0,1.0,1.0,3.0,1.0,,,,,,,,,1.0,training_resp,,232.54381245735567,7.431001962977461,13.0,,left,gold,0.0,121.0,1.0,right,2022_Jun_17_1427,habits_v_MRI,5.0,40.0,1.0,5.0,30.0,15.0,5.0,15.0,30.0,30.0,60.0,RR,60.09742120820547,
25.0,1.0,resp2,stim/left_resp_img.png,"[0.5, 0]",left,stim/gold_coin.png,silver,,,,,training,,,gold,val,,,,,0.0,1.0,1.0,1.0,1.0,1.0,3.0,1.0,,,,,,,,,1.0,training_resp,,238.22681595932227,13.113967049925122,13.0,,left,gold,0.0,121.0,1.0,right,2022_Jun_17_1427,habits_v_MRI,5.0,40.0,1.0,5.0,30.0,15.0,5.0,15.0,30.0,30.0,60.0,RR,60.09742120820547,
25.0,1.0,resp2,stim/left_resp_img.png,"[0.5, 0]",left,stim/gold_coin.png,silver,,,,,training,,,gold,val,,,,,0.0,1.0,1.0,1.0,1.0,1.0,3.0,1.0,,,,,,,,,1.0,training_resp,,244.3430101996055,19.230172726791352,13.0,,left,gold,0.0,121.0,1.0,right,2022_Jun_17_1427,habits_v_MRI,5.0,40.0,1.0,5.0,30.0,15.0,5.0,15.0,30.0,30.0,60.0,RR,60.09742120820547,
25.0,1.0,resp2,stim/left_resp_img.png,"[0.5, 0]",left,stim/gold_coin.png,silver,,,,,training,,,gold,val,,,,,0.0,1.0,1.0,1.0,1.0,1.0,3.0,1.0,,,,,,,,,1.0,training_resp,,249.5427459278726,24.42987326567527,13.0,,left,gold,0.0,121.0,1.0,right,2022_Jun_17_1427,habits_v_MRI,5.0,40.0,1.0,5.0,30.0,15.0,5.0,15.0,30.0,30.0,60.0,RR,60.09742120820547,
25.0,1.0,resp2,stim/left_resp_img.png,"[0.5, 0]",left,stim/gold_coin.png,silver,,,,,training,,,gold,val,,,,,0.0,1.0,1.0,1.0,1.0,1.0,3.0,1.0,,,,,,,,,1.0,ITI_start,15.0,254.79306043236284,29.679446155379992,,,,,,121.0,1.0,right,2022_Jun_17_1427,habits_v_MRI,5.0,40.0,1.0,5.0,30.0,15.0,5.0,15.0,30.0,30.0,60.0,RR,60.09742120820547,
25.0,0.0,resp1,stim/right_resp_img.png,"[-0.5, 0]",right,stim/silver_coin.png,silver,,,,,training,,,silver,deval,,,,,0.0,1.0,1.0,1.0,2.0,0.0,4.0,0.0,,,,,,,,,1.0,training_period_start,30.0,269.8301136086812,0.0,14.0,18.0,,,,121.0,1.0,right,2022_Jun_17_1427,habits_v_MRI,5.0,40.0,1.0,5.0,30.0,15.0,5.0,15.0,30.0,30.0,60.0,RR,60.09742120820547,
25.0,0.0,resp1,stim/right_resp_img.png,"[-0.5, 0]",right,stim/silver_coin.png,silver,,,,,training,,,silver,deval,,,,,0.0,1.0,1.0,1.0,2.0,0.0,4.0,0.0,,,,,,,,,1.0,training_resp,,271.35788208415033,1.5480721240164712,14.0,,right,silver,0.0,121.0,1.0,right,2022_Jun_17_1427,habits_v_MRI,5.0,40.0,1.0,5.0,30.0,15.0,5.0,15.0,30.0,30.0,60.0,RR,60.09742120820547,
25.0,0.0,resp1,stim/right_resp_img.png,"[-0.5, 0]",right,stim/silver_coin.png,silver,,,,,training,,,silver,deval,,,,,0.0,1.0,1.0,1.0,2.0,0.0,4.0,0.0,,,,,,,,,1.0,training_resp,,276.74086148134666,6.931017798138782,14.0,,right,silver,0.0,121.0,1.0,right,2022_Jun_17_1427,habits_v_MRI,5.0,40.0,1.0,5.0,30.0,15.0,5.0,15.0,30.0,30.0,60.0,RR,60.09742120820547,
25.0,0.0,resp1,stim/right_resp_img.png,"[-0.5, 0]",right,stim/silver_coin.png,silver,,,,,training,,,silver,deval,,,,,0.0,1.0,1.0,1.0,2.0,0.0,4.0,0.0,,,,,,,,,1.0,training_resp,,283.3237780656782,13.513880132290067,14.0,,right,silver,0.0,121.0,1.0,right,2022_Jun_17_1427,habits_v_MRI,5.0,40.0,1.0,5.0,30.0,15.0,5.0,15.0,30.0,30.0,60.0,RR,60.09742120820547,
25.0,0.0,resp1,stim/right_resp_img.png,"[-0.5, 0]",right,stim/silver_coin.png,silver,,,,,training,,,silver,deval,,,,,0.0,1.0,1.0,1.0,2.0,0.0,4.0,0.0,,,,,,,,,1.0,training_resp,,288.6400684315013,18.830272840335965,14.0,,right,silver,0.0,121.0,1.0,right,2022_Jun_17_1427,habits_v_MRI,5.0,40.0,1.0,5.0,30.0,15.0,5.0,15.0,30.0,30.0,60.0,RR,60.09742120820547,
25.0,0.0,resp1,stim/right_resp_img.png,"[-0.5, 0]",right,stim/silver_coin.png,silver,,,,,training,,,silver,deval,,,,,0.0,1.0,1.0,1.0,2.0,0.0,4.0,0.0,,,,,,,,,1.0,training_resp,,294.90622897807043,25.09647062892327,14.0,,right,silver,0.0,121.0,1.0,right,2022_Jun_17_1427,habits_v_MRI,5.0,40.0,1.0,5.0,30.0,15.0,5.0,15.0,30.0,30.0,60.0,RR,60.09742120820547,
25.0,0.0,resp1,stim/right_resp_img.png,"[-0.5, 0]",right,stim/silver_coin.png,silver,,,,,training,,,silver,deval,,,,,0.0,1.0,1.0,1.0,2.0,0.0,4.0,0.0,,,,,,,,,1.0,ITI_start,18.33333333333333,299.4901587213972,29.6796238613897,,,,,,121.0,1.0,right,2022_Jun_17_1427,habits_v_MRI,5.0,40.0,1.0,5.0,30.0,15.0,5.0,15.0,30.0,30.0,60.0,RR,60.09742120820547,
25.0,1.0,resp2,stim/left_resp_img.png,"[0.5, 0]",left,stim/gold_coin.png,silver,,,,,training,,,gold,val,,,,,0.0,1.0,1.0,1.0,2.0,1.0,5.0,1.0,,,,,,,,,1.0,training_period_start,60.0,317.85881929291645,0.0,15.0,17.0,,,,121.0,1.0,right,2022_Jun_17_1427,habits_v_MRI,5.0,40.0,1.0,5.0,30.0,15.0,5.0,15.0,30.0,30.0,60.0,RR,60.09742120820547,
25.0,1.0,resp2,stim/left_resp_img.png,"[0.5, 0]",left,stim/gold_coin.png,silver,,,,,training,,,gold,val,,,,,0.0,1.0,1.0,1.0,2.0,1.0,5.0,1.0,,,,,,,,,1.0,training_resp,,319.1379764266894,1.2982617064844817,15.0,,left,gold,0.0,121.0,1.0,right,2022_Jun_17_1427,habits_v_MRI,5.0,40.0,1.0,5.0,30.0,15.0,5.0,15.0,30.0,30.0,60.0,RR,60.09742120820547,
25.0,1.0,resp2,stim/left_resp_img.png,"[0.5, 0]",left,stim/gold_coin.png,silver,,,,,training,,,gold,val,,,,,0.0,1.0,1.0,1.0,2.0,1.0,5.0,1.0,,,,,,,,,1.0,training_resp,,319.48787493485725,1.6482203297200613,15.0,,left,gold,0.0,121.0,1.0,right,2022_Jun_17_1427,habits_v_MRI,5.0,40.0,1.0,5.0,30.0,15.0,5.0,15.0,30.0,30.0,60.0,RR,60.09742120820547,
25.0,1.0,resp2,stim/left_resp_img.png,"[0.5, 0]",left,stim/gold_coin.png,silver,,,,,training,,,gold,val,,,,,0.0,1.0,1.0,1.0,2.0,1.0,5.0,1.0,,,,,,,,,1.0,training_resp,,325.37092207151,7.53124957846012,15.0,,left,gold,0.0,121.0,1.0,right,2022_Jun_17_1427,habits_v_MRI,5.0,40.0,1.0,5.0,30.0,15.0,5.0,15.0,30.0,30.0,60.0,RR,60.09742120820547,
25.0,1.0,resp2,stim/left_resp_img.png,"[0.5, 0]",left,stim/gold_coin.png,silver,,,,,training,,,gold,val,,,,,0.0,1.0,1.0,1.0,2.0,1.0,5.0,1.0,,,,,,,,,1.0,training_resp,,325.72080709040165,7.881152485322673,15.0,,left,gold,0.0,121.0,1.0,right,2022_Jun_17_1427,habits_v_MRI,5.0,40.0,1.0,5.0,30.0,15.0,5.0,15.0,30.0,30.0,60.0,RR,60.09742120820547,
25.0,1.0,resp2,stim/left_resp_img.png,"[0.5, 0]",left,stim/gold_coin.png,silver,,,,,training,,,gold,val,,,,,0.0,1.0,1.0,1.0,2.0,1.0,5.0,1.0,,,,,,,,,1.0,training_resp,,331.3873804076575,13.547603519633412,15.0,,left,gold,0.0,121.0,1.0,right,2022_Jun_17_1427,habits_v_MRI,5.0,40.0,1.0,5.0,30.0,15.0,5.0,15.0,30.0,30.0,60.0,RR,60.09742120820547,
25.0,1.0,resp2,stim/left_resp_img.png,"[0.5, 0]",left,stim/gold_coin.png,silver,,,,,training,,,gold,val,,,,,0.0,1.0,1.0,1.0,2.0,1.0,5.0,1.0,,,,,,,,,1.0,training_resp,,331.7537724412396,13.91414129571058,15.0,,left,gold,0.0,121.0,1.0,right,2022_Jun_17_1427,habits_v_MRI,5.0,40.0,1.0,5.0,30.0,15.0,5.0,15.0,30.0,30.0,60.0,RR,60.09742120820547,
25.0,1.0,resp2,stim/left_resp_img.png,"[0.5, 0]",left,stim/gold_coin.png,silver,,,,,training,,,gold,val,,,,,0.0,1.0,1.0,1.0,2.0,1.0,5.0,1.0,,,,,,,,,1.0,training_resp,,337.17020485462854,19.330454651848413,15.0,,left,gold,0.0,121.0,1.0,right,2022_Jun_17_1427,habits_v_MRI,5.0,40.0,1.0,5.0,30.0,15.0,5.0,15.0,30.0,30.0,60.0,RR,60.09742120820547,
25.0,1.0,resp2,stim/left_resp_img.png,"[0.5, 0]",left,stim/gold_coin.png,silver,,,,,training,,,gold,val,,,,,0.0,1.0,1.0,1.0,2.0,1.0,5.0,1.0,,,,,,,,,1.0,training_resp,,337.57012086943723,19.730400870845187,15.0,,left,gold,0.0,121.0,1.0,right,2022_Jun_17_1427,habits_v_MRI,5.0,40.0,1.0,5.0,30.0,15.0,5.0,15.0,30.0,30.0,60.0,RR,60.09742120820547,
25.0,1.0,resp2,stim/left_resp_img.png,"[0.5, 0]",left,stim/gold_coin.png,silver,,,,,training,,,gold,val,,,,,0.0,1.0,1.0,1.0,2.0,1.0,5.0,1.0,,,,,,,,,1.0,training_resp,,343.8863584512728,26.046650182455775,15.0,,left,gold,0.0,121.0,1.0,right,2022_Jun_17_1427,habits_v_MRI,5.0,40.0,1.0,5.0,30.0,15.0,5.0,15.0,30.0,30.0,60.0,RR,60.09742120820547,
25.0,1.0,resp2,stim/left_resp_img.png,"[0.5, 0]",left,stim/gold_coin.png,silver,,,,,training,,,gold,val,,,,,0.0,1.0,1.0,1.0,2.0,1.0,5.0,1.0,,,,,,,,,1.0,training_resp,,344.28622197540244,26.44660813122755,15.0,,left,gold,0.0,121.0,1.0,right,2022_Jun_17_1427,habits_v_MRI,5.0,40.0,1.0,5.0,30.0,15.0,5.0,15.0,30.0,30.0,60.0,RR,60.09742120820547,
25.0,1.0,resp2,stim/left_resp_img.png,"[0.5, 0]",left,stim/gold_coin.png,silver,,,,,training,,,gold,val,,,,,0.0,1.0,1.0,1.0,2.0,1.0,5.0,1.0,,,,,,,,,1.0,training_resp,,351.7524073890527,33.912721113534644,15.0,,left,gold,0.0,121.0,1.0,right,2022_Jun_17_1427,habits_v_MRI,5.0,40.0,1.0,5.0,30.0,15.0,5.0,15.0,30.0,30.0,60.0,RR,60.09742120820547,
25.0,1.0,resp2,stim/left_resp_img.png,"[0.5, 0]",left,stim/gold_coin.png,silver,,,,,training,,,gold,val,,,,,0.0,1.0,1.0,1.0,2.0,1.0,5.0,1.0,,,,,,,,,1.0,training_resp,,352.13578149309615,34.29604741878575,15.0,,left,gold,0.0,121.0,1.0,right,2022_Jun_17_1427,habits_v_MRI,5.0,40.0,1.0,5.0,30.0,15.0,5.0,15.0,30.0,30.0,60.0,RR,60.09742120820547,
25.0,1.0,resp2,stim/left_resp_img.png,"[0.5, 0]",left,stim/gold_coin.png,silver,,,,,training,,,gold,val,,,,,0.0,1.0,1.0,1.0,2.0,1.0,5.0,1.0,,,,,,,,,1.0,training_resp,,358.4352871418814,40.59558239200851,15.0,,left,gold,0.0,121.0,1.0,right,2022_Jun_17_1427,habits_v_MRI,5.0,40.0,1.0,5.0,30.0,15.0,5.0,15.0,30.0,30.0,60.0,RR,60.09742120820547,
25.0,1.0,resp2,stim/left_resp_img.png,"[0.5, 0]",left,stim/gold_coin.png,silver,,,,,training,,,gold,val,,,,,0.0,1.0,1.0,1.0,2.0,1.0,5.0,1.0,,,,,,,,,1.0,training_resp,,358.8019609832554,40.96224421035731,15.0,,left,gold,0.0,121.0,1.0,right,2022_Jun_17_1427,habits_v_MRI,5.0,40.0,1.0,5.0,30.0,15.0,5.0,15.0,30.0,30.0,60.0,RR,60.09742120820547,
25.0,1.0,resp2,stim/left_resp_img.png,"[0.5, 0]",left,stim/gold_coin.png,silver,,,,,training,,,gold,val,,,,,0.0,1.0,1.0,1.0,2.0,1.0,5.0,1.0,,,,,,,,,1.0,training_resp,,366.2351476162439,48.395103582704905,15.0,,left,gold,0.0,121.0,1.0,right,2022_Jun_17_1427,habits_v_MRI,5.0,40.0,1.0,5.0,30.0,15.0,5.0,15.0,30.0,30.0,60.0,RR,60.09742120820547,
25.0,1.0,resp2,stim/left_resp_img.png,"[0.5, 0]",left,stim/gold_coin.png,silver,,,,,training,,,gold,val,,,,,0.0,1.0,1.0,1.0,2.0,1.0,5.0,1.0,,,,,,,,,1.0,training_resp,,366.63476276240544,48.795064463920426,15.0,,left,gold,0.0,121.0,1.0,right,2022_Jun_17_1427,habits_v_MRI,5.0,40.0,1.0,5.0,30.0,15.0,5.0,15.0,30.0,30.0,60.0,RR,60.09742120820547,
25.0,1.0,resp2,stim/left_resp_img.png,"[0.5, 0]",left,stim/gold_coin.png,silver,,,,,training,,,gold,val,,,,,0.0,1.0,1.0,1.0,2.0,1.0,5.0,1.0,,,,,,,,,1.0,training_resp,,371.8509943620884,54.01129577035317,15.0,23.0,left,gold,1.0,121.0,1.0,right,2022_Jun_17_1427,habits_v_MRI,5.0,40.0,1.0,5.0,30.0,15.0,5.0,15.0,30.0,30.0,60.0,RR,60.09742120820547,
25.0,1.0,resp2,stim/left_resp_img.png,"[0.5, 0]",left,stim/gold_coin.png,silver,,,,,training,,,gold,val,,,,,0.0,1.0,1.0,1.0,2.0,1.0,5.0,1.0,,,,,,,,,1.0,ITI_start,20.0,377.51664718549,59.677624228585046,,,,,,121.0,1.0,right,2022_Jun_17_1427,habits_v_MRI,5.0,40.0,1.0,5.0,30.0,15.0,5.0,15.0,30.0,30.0,60.0,RR,60.09742120820547,
25.0,0.0,resp1,stim/right_resp_img.png,"[-0.5, 0]",right,stim/silver_coin.png,silver,,,,,training,,,silver,deval,,,,,0.0,1.0,1.0,1.0,3.0,0.0,6.0,0.0,,,,,,,,,1.0,training_period_start,45.0,397.5541938919341,0.0,16.0,19.0,,,,121.0,1.0,right,2022_Jun_17_1427,habits_v_MRI,5.0,40.0,1.0,5.0,30.0,15.0,5.0,15.0,30.0,30.0,60.0,RR,60.09742120820547,
25.0,0.0,resp1,stim/right_resp_img.png,"[-0.5, 0]",right,stim/silver_coin.png,silver,,,,,training,,,silver,deval,,,,,0.0,1.0,1.0,1.0,3.0,0.0,6.0,0.0,,,,,,,,,1.0,training_resp,,398.1994674096932,0.6650147237814963,16.0,,right,silver,0.0,121.0,1.0,right,2022_Jun_17_1427,habits_v_MRI,5.0,40.0,1.0,5.0,30.0,15.0,5.0,15.0,30.0,30.0,60.0,RR,60.09742120820547,
25.0,0.0,resp1,stim/right_resp_img.png,"[-0.5, 0]",right,stim/silver_coin.png,silver,,,,,training,,,silver,deval,,,,,0.0,1.0,1.0,1.0,3.0,0.0,6.0,0.0,,,,,,,,,1.0,training_resp,,404.0489366081893,6.514548436040059,16.0,,right,silver,0.0,121.0,1.0,right,2022_Jun_17_1427,habits_v_MRI,5.0,40.0,1.0,5.0,30.0,15.0,5.0,15.0,30.0,30.0,60.0,RR,60.09742120820547,
25.0,0.0,resp1,stim/right_resp_img.png,"[-0.5, 0]",right,stim/silver_coin.png,silver,,,,,training,,,silver,deval,,,,,0.0,1.0,1.0,1.0,3.0,0.0,6.0,0.0,,,,,,,,,1.0,training_resp,,409.59854885126697,12.06419498869218,16.0,,right,silver,0.0,121.0,1.0,right,2022_Jun_17_1427,habits_v_MRI,5.0,40.0,1.0,5.0,30.0,15.0,5.0,15.0,30.0,30.0,60.0,RR,60.09742120820547,
25.0,0.0,resp1,stim/right_resp_img.png,"[-0.5, 0]",right,stim/silver_coin.png,silver,,,,,training,,,silver,deval,,,,,0.0,1.0,1.0,1.0,3.0,0.0,6.0,0.0,,,,,,,,,1.0,training_resp,,415.36486716324,17.830460516677704,16.0,,right,silver,0.0,121.0,1.0,right,2022_Jun_17_1427,habits_v_MRI,5.0,40.0,1.0,5.0,30.0,15.0,5.0,15.0,30.0,30.0,60.0,RR,60.09742120820547,
25.0,0.0,resp1,stim/right_resp_img.png,"[-0.5, 0]",right,stim/silver_coin.png,silver,,,,,training,,,silver,deval,,,,,0.0,1.0,1.0,1.0,3.0,0.0,6.0,0.0,,,,,,,,,1.0,training_resp,,420.9642822581809,23.430018128361557,16.0,,right,silver,0.0,121.0,1.0,right,2022_Jun_17_1427,habits_v_MRI,5.0,40.0,1.0,5.0,30.0,15.0,5.0,15.0,30.0,30.0,60.0,RR,60.09742120820547,
25.0,0.0,resp1,stim/right_resp_img.png,"[-0.5, 0]",right,stim/silver_coin.png,silver,,,,,training,,,silver,deval,,,,,0.0,1.0,1.0,1.0,3.0,0.0,6.0,0.0,,,,,,,,,1.0,training_resp,,426.59736912947847,29.063012041151524,16.0,,right,silver,0.0,121.0,1.0,right,2022_Jun_17_1427,habits_v_MRI,5.0,40.0,1.0,5.0,30.0,15.0,5.0,15.0,30.0,30.0,60.0,RR,60.09742120820547,
25.0,0.0,resp1,stim/right_resp_img.png,"[-0.5, 0]",right,stim/silver_coin.png,silver,,,,,training,,,silver,deval,,,,,0.0,1.0,1.0,1.0,3.0,0.0,6.0,0.0,,,,,,,,,1.0,training_resp,,432.1801989134983,34.64593537012115,16.0,,right,silver,0.0,121.0,1.0,right,2022_Jun_17_1427,habits_v_MRI,5.0,40.0,1.0,5.0,30.0,15.0,5.0,15.0,30.0,30.0,60.0,RR,60.09742120820547,
25.0,0.0,resp1,stim/right_resp_img.png,"[-0.5, 0]",right,stim/silver_coin.png,silver,,,,,training,,,silver,deval,,,,,0.0,1.0,1.0,1.0,3.0,0.0,6.0,0.0,,,,,,,,,1.0,training_resp,,437.8467701780028,40.31229637848446,16.0,,right,silver,0.0,121.0,1.0,right,2022_Jun_17_1427,habits_v_MRI,5.0,40.0,1.0,5.0,30.0,15.0,5.0,15.0,30.0,30.0,60.0,RR,60.09742120820547,
25.0,0.0,resp1,stim/right_resp_img.png,"[-0.5, 0]",right,stim/silver_coin.png,silver,,,,,training,,,silver,deval,,,,,0.0,1.0,1.0,1.0,3.0,0.0,6.0,0.0,,,,,,,,,1.0,ITI_start,26.666666666666668,442.2123258788488,44.678599559061695,,,,,,121.0,1.0,right,2022_Jun_17_1427,habits_v_MRI,5.0,40.0,1.0,5.0,30.0,15.0,5.0,15.0,30.0,30.0,60.0,RR,60.09742120820547,
25.0,1.0,resp2,stim/left_resp_img.png,"[0.5, 0]",left,stim/gold_coin.png,silver,,,,,training,,,gold,val,,,,,0.0,1.0,1.0,1.0,3.0,1.0,7.0,1.0,,,,,,,,,1.0,training_period_start,45.0,468.9161385825719,0.0,17.0,14.0,,,,121.0,1.0,right,2022_Jun_17_1427,habits_v_MRI,5.0,40.0,1.0,5.0,30.0,15.0,5.0,15.0,30.0,30.0,60.0,RR,60.09742120820547,
25.0,1.0,resp2,stim/left_resp_img.png,"[0.5, 0]",left,stim/gold_coin.png,silver,,,,,training,,,gold,val,,,,,0.0,1.0,1.0,1.0,3.0,1.0,7.0,1.0,,,,,,,,,1.0,training_resp,,469.57771853590384,0.6814449084922671,17.0,,left,gold,0.0,121.0,1.0,right,2022_Jun_17_1427,habits_v_MRI,5.0,40.0,1.0,5.0,30.0,15.0,5.0,15.0,30.0,30.0,60.0,RR,60.09742120820547,
25.0,1.0,resp2,stim/left_resp_img.png,"[0.5, 0]",left,stim/gold_coin.png,silver,,,,,training,,,gold,val,,,,,0.0,1.0,1.0,1.0,3.0,1.0,7.0,1.0,,,,,,,,,1.0,training_resp,,470.1276662504533,1.2314855814329349,17.0,,left,gold,0.0,121.0,1.0,right,2022_Jun_17_1427,habits_v_MRI,5.0,40.0,1.0,5.0,30.0,15.0,5.0,15.0,30.0,30.0,60.0,RR,60.09742120820547,
25.0,1.0,resp2,stim/left_resp_img.png,"[0.5, 0]",left,stim/gold_coin.png,silver,,,,,training,,,gold,val,,,,,0.0,1.0,1.0,1.0,3.0,1.0,7.0,1.0,,,,,,,,,1.0,training_resp,,474.44426598900463,5.547810843330808,17.0,,left,gold,0.0,121.0,1.0,right,2022_Jun_17_1427,habits_v_MRI,5.0,40.0,1.0,5.0,30.0,15.0,5.0,15.0,30.0,30.0,60.0,RR,60.09742120820547,
25.0,1.0,resp2,stim/left_resp_img.png,"[0.5, 0]",left,stim/gold_coin.png,silver,,,,,training,,,gold,val,,,,,0.0,1.0,1.0,1.0,3.0,1.0,7.0,1.0,,,,,,,,,1.0,training_resp,,474.8106465860619,5.914457413018681,17.0,,left,gold,0.0,121.0,1.0,right,2022_Jun_17_1427,habits_v_MRI,5.0,40.0,1.0,5.0,30.0,15.0,5.0,15.0,30.0,30.0,60.0,RR,60.09742120820547,
25.0,1.0,resp2,stim/left_resp_img.png,"[0.5, 0]",left,stim/gold_coin.png,silver,,,,,training,,,gold,val,,,,,0.0,1.0,1.0,1.0,3.0,1.0,7.0,1.0,,,,,,,,,1.0,training_resp,,480.3271509615588,11.430787601391785,17.0,,left,gold,0.0,121.0,1.0,right,2022_Jun_17_1427,habits_v_MRI,5.0,40.0,1.0,5.0,30.0,15.0,5.0,15.0,30.0,30.0,60.0,RR,60.09742120820547,
25.0,1.0,resp2,stim/left_resp_img.png,"[0.5, 0]",left,stim/gold_coin.png,silver,,,,,training,,,gold,val,,,,,0.0,1.0,1.0,1.0,3.0,1.0,7.0,1.0,,,,,,,,,1.0,training_resp,,480.7771223115851,11.880798539379612,17.0,,left,gold,0.0,121.0,1.0,right,2022_Jun_17_1427,habits_v_MRI,5.0,40.0,1.0,5.0,30.0,15.0,5.0,15.0,30.0,30.0,60.0,RR,60.09742120820547,
25.0,1.0,resp2,stim/left_resp_img.png,"[0.5, 0]",left,stim/gold_coin.png,silver,,,,,training,,,gold,val,,,,,0.0,1.0,1.0,1.0,3.0,1.0,7.0,1.0,,,,,,,,,1.0,training_resp,,485.9932773744804,17.09700609301217,17.0,,left,gold,0.0,121.0,1.0,right,2022_Jun_17_1427,habits_v_MRI,5.0,40.0,1.0,5.0,30.0,15.0,5.0,15.0,30.0,30.0,60.0,RR,60.09742120820547,
25.0,1.0,resp2,stim/left_resp_img.png,"[0.5, 0]",left,stim/gold_coin.png,silver,,,,,training,,,gold,val,,,,,0.0,1.0,1.0,1.0,3.0,1.0,7.0,1.0,,,,,,,,,1.0,training_resp,,486.3765614525764,17.48034969967557,17.0,,left,gold,0.0,121.0,1.0,right,2022_Jun_17_1427,habits_v_MRI,5.0,40.0,1.0,5.0,30.0,15.0,5.0,15.0,30.0,30.0,60.0,RR,60.09742120820547,
25.0,1.0,resp2,stim/left_resp_img.png,"[0.5, 0]",left,stim/gold_coin.png,silver,,,,,training,,,gold,val,,,,,0.0,1.0,1.0,1.0,3.0,1.0,7.0,1.0,,,,,,,,,1.0,training_resp,,492.7262318166322,23.82993531617103,17.0,,left,gold,0.0,121.0,1.0,right,2022_Jun_17_1427,habits_v_MRI,5.0,40.0,1.0,5.0,30.0,15.0,5.0,15.0,30.0,30.0,60.0,RR,60.09742120820547,
25.0,1.0,resp2,stim/left_resp_img.png,"[0.5, 0]",left,stim/gold_coin.png,silver,,,,,training,,,gold,val,,,,,0.0,1.0,1.0,1.0,3.0,1.0,7.0,1.0,,,,,,,,,1.0,training_resp,,493.1427906182944,24.246552473399788,17.0,,left,gold,0.0,121.0,1.0,right,2022_Jun_17_1427,habits_v_MRI,5.0,40.0,1.0,5.0,30.0,15.0,5.0,15.0,30.0,30.0,60.0,RR,60.09742120820547,
25.0,1.0,resp2,stim/left_resp_img.png,"[0.5, 0]",left,stim/gold_coin.png,silver,,,,,training,,,gold,val,,,,,0.0,1.0,1.0,1.0,3.0,1.0,7.0,1.0,,,,,,,,,1.0,training_resp,,498.3591119507328,29.46282952593174,17.0,,left,gold,0.0,121.0,1.0,right,2022_Jun_17_1427,habits_v_MRI,5.0,40.0,1.0,5.0,30.0,15.0,5.0,15.0,30.0,30.0,60.0,RR,60.09742120820547,
25.0,1.0,resp2,stim/left_resp_img.png,"[0.5, 0]",left,stim/gold_coin.png,silver,,,,,training,,,gold,val,,,,,0.0,1.0,1.0,1.0,3.0,1.0,7.0,1.0,,,,,,,,,1.0,training_resp,,498.74239954771474,29.84617313259514,17.0,,left,gold,0.0,121.0,1.0,right,2022_Jun_17_1427,habits_v_MRI,5.0,40.0,1.0,5.0,30.0,15.0,5.0,15.0,30.0,30.0,60.0,RR,60.09742120820547,
