list,trial_num_python,condition,stimulus,position,corrResp,coin_img,devalued_coin,stimulus_choice1,stimulus_choice2,position1,position2,phase,corrResp1,corrResp2,outcome,cond_val,outcome_choice1,outcome_choice2,cond_val1,cond_val2,blockLoop.thisRepN,blockLoop.thisTrialN,blockLoop.thisN,blockLoop.thisIndex,trialLoop.thisRepN,trialLoop.thisTrialN,trialLoop.thisN,trialLoop.thisIndex,choice_trialLoop.thisRepN,choice_trialLoop.thisTrialN,choice_trialLoop.thisN,choice_trialLoop.thisIndex,contingency_trialLoop.thisRepN,contingency_trialLoop.thisTrialN,contingency_trialLoop.thisN,contingency_trialLoop.thisIndex,run,event,duration,globalClock_t,routineClock_t,trial,nResp_untilRnf,resp,selected_coin,wasRnf,participant,task_ordering,hand,date,expName,n_repeat_training,credits_per_rnf,cost_response,min_resp_bet_rnf,max_resp_bet_rnf,mean_resp_bet_rnf,sigma_resp_bet_rnf,min_ITI,max_ITI,min_trial_duration,max_trial_duration,schedule,frameRate,Unnamed: 65
18.0,0.0,resp1,stim/left_resp_img.png,"[0.5, 0]",left,stim/silver_coin.png,silver,,,,,training,,,silver,deval,,,,,0.0,0.0,0.0,0.0,0.0,0.0,0.0,0.0,,,,,,,,,0.0,instr_before_block,6.0,0.0045335435133893,,,,,,,242.0,2.0,right,2023_Sep_22_1512,habits_v_MRI,5.0,40.0,1.0,5.0,30.0,15.0,5.0,15.0,30.0,30.0,60.0,RR,60.03380067093336,
18.0,0.0,resp1,stim/left_resp_img.png,"[0.5, 0]",left,stim/silver_coin.png,silver,,,,,training,,,silver,deval,,,,,0.0,0.0,0.0,0.0,0.0,0.0,0.0,0.0,,,,,,,,,0.0,training_period_start,45.0,6.042407106346218,0.0,0.0,12.0,,,,242.0,2.0,right,2023_Sep_22_1512,habits_v_MRI,5.0,40.0,1.0,5.0,30.0,15.0,5.0,15.0,30.0,30.0,60.0,RR,60.03380067093336,
18.0,0.0,resp1,stim/left_resp_img.png,"[0.5, 0]",left,stim/silver_coin.png,silver,,,,,training,,,silver,deval,,,,,0.0,0.0,0.0,0.0,0.0,0.0,0.0,0.0,,,,,,,,,0.0,training_resp,,6.720715537434444,0.698818170290906,0.0,,left,silver,0.0,242.0,2.0,right,2023_Sep_22_1512,habits_v_MRI,5.0,40.0,1.0,5.0,30.0,15.0,5.0,15.0,30.0,30.0,60.0,RR,60.03380067093336,
18.0,0.0,resp1,stim/left_resp_img.png,"[0.5, 0]",left,stim/silver_coin.png,silver,,,,,training,,,silver,deval,,,,,0.0,0.0,0.0,0.0,0.0,0.0,0.0,0.0,,,,,,,,,0.0,training_resp,,7.103773573820945,1.0821254636102822,0.0,,left,silver,0.0,242.0,2.0,right,2023_Sep_22_1512,habits_v_MRI,5.0,40.0,1.0,5.0,30.0,15.0,5.0,15.0,30.0,30.0,60.0,RR,60.03380067093336,
18.0,0.0,resp1,stim/left_resp_img.png,"[0.5, 0]",left,stim/silver_coin.png,silver,,,,,training,,,silver,deval,,,,,0.0,0.0,0.0,0.0,0.0,0.0,0.0,0.0,,,,,,,,,0.0,training_resp,,7.487070896866498,1.4654503515339456,0.0,,left,silver,0.0,242.0,2.0,right,2023_Sep_22_1512,habits_v_MRI,5.0,40.0,1.0,5.0,30.0,15.0,5.0,15.0,30.0,30.0,60.0,RR,60.03380067093336,
18.0,0.0,resp1,stim/left_resp_img.png,"[0.5, 0]",left,stim/silver_coin.png,silver,,,,,training,,,silver,deval,,,,,0.0,0.0,0.0,0.0,0.0,0.0,0.0,0.0,,,,,,,,,0.0,training_resp,,7.870593137631658,1.84870925967698,0.0,,left,silver,0.0,242.0,2.0,right,2023_Sep_22_1512,habits_v_MRI,5.0,40.0,1.0,5.0,30.0,15.0,5.0,15.0,30.0,30.0,60.0,RR,60.03380067093336,
18.0,0.0,resp1,stim/left_resp_img.png,"[0.5, 0]",left,stim/silver_coin.png,silver,,,,,training,,,silver,deval,,,,,0.0,0.0,0.0,0.0,0.0,0.0,0.0,0.0,,,,,,,,,0.0,training_resp,,8.203706245141802,2.1820613605959807,0.0,,left,silver,0.0,242.0,2.0,right,2023_Sep_22_1512,habits_v_MRI,5.0,40.0,1.0,5.0,30.0,15.0,5.0,15.0,30.0,30.0,60.0,RR,60.03380067093336,
18.0,0.0,resp1,stim/left_resp_img.png,"[0.5, 0]",left,stim/silver_coin.png,silver,,,,,training,,,silver,deval,,,,,0.0,0.0,0.0,0.0,0.0,0.0,0.0,0.0,,,,,,,,,0.0,training_resp,,8.520266053907108,2.498647268017521,0.0,,left,silver,0.0,242.0,2.0,right,2023_Sep_22_1512,habits_v_MRI,5.0,40.0,1.0,5.0,30.0,15.0,5.0,15.0,30.0,30.0,60.0,RR,60.03380067093336,
18.0,0.0,resp1,stim/left_resp_img.png,"[0.5, 0]",left,stim/silver_coin.png,silver,,,,,training,,,silver,deval,,,,,0.0,0.0,0.0,0.0,0.0,0.0,0.0,0.0,,,,,,,,,0.0,training_resp,,8.853707887290511,2.832060656801332,0.0,,left,silver,0.0,242.0,2.0,right,2023_Sep_22_1512,habits_v_MRI,5.0,40.0,1.0,5.0,30.0,15.0,5.0,15.0,30.0,30.0,60.0,RR,60.03380067093336,
18.0,0.0,resp1,stim/left_resp_img.png,"[0.5, 0]",left,stim/silver_coin.png,silver,,,,,training,,,silver,deval,,,,,0.0,0.0,0.0,0.0,0.0,0.0,0.0,0.0,,,,,,,,,0.0,training_resp,,9.170290275797017,3.1486676777713,0.0,,left,silver,0.0,242.0,2.0,right,2023_Sep_22_1512,habits_v_MRI,5.0,40.0,1.0,5.0,30.0,15.0,5.0,15.0,30.0,30.0,60.0,RR,60.03380067093336,
18.0,0.0,resp1,stim/left_resp_img.png,"[0.5, 0]",left,stim/silver_coin.png,silver,,,,,training,,,silver,deval,,,,,0.0,0.0,0.0,0.0,0.0,0.0,0.0,0.0,,,,,,,,,0.0,training_resp,,9.536930491914973,3.515285607369151,0.0,,left,silver,0.0,242.0,2.0,right,2023_Sep_22_1512,habits_v_MRI,5.0,40.0,1.0,5.0,30.0,15.0,5.0,15.0,30.0,30.0,60.0,RR,60.03380067093336,
18.0,0.0,resp1,stim/left_resp_img.png,"[0.5, 0]",left,stim/silver_coin.png,silver,,,,,training,,,silver,deval,,,,,0.0,0.0,0.0,0.0,0.0,0.0,0.0,0.0,,,,,,,,,0.0,training_resp,,9.937047378742136,3.915405133389868,0.0,,left,silver,0.0,242.0,2.0,right,2023_Sep_22_1512,habits_v_MRI,5.0,40.0,1.0,5.0,30.0,15.0,5.0,15.0,30.0,30.0,60.0,RR,60.03380067093336,
18.0,0.0,resp1,stim/left_resp_img.png,"[0.5, 0]",left,stim/silver_coin.png,silver,,,,,training,,,silver,deval,,,,,0.0,0.0,0.0,0.0,0.0,0.0,0.0,0.0,,,,,,,,,0.0,training_resp,,10.35352959530428,4.33187268776237,0.0,,left,silver,0.0,242.0,2.0,right,2023_Sep_22_1512,habits_v_MRI,5.0,40.0,1.0,5.0,30.0,15.0,5.0,15.0,30.0,30.0,60.0,RR,60.03380067093336,
18.0,0.0,resp1,stim/left_resp_img.png,"[0.5, 0]",left,stim/silver_coin.png,silver,,,,,training,,,silver,deval,,,,,0.0,0.0,0.0,0.0,0.0,0.0,0.0,0.0,,,,,,,,,0.0,training_resp,,10.720165999227902,4.698529618763132,0.0,20.0,left,silver,1.0,242.0,2.0,right,2023_Sep_22_1512,habits_v_MRI,5.0,40.0,1.0,5.0,30.0,15.0,5.0,15.0,30.0,30.0,60.0,RR,60.03380067093336,
18.0,0.0,resp1,stim/left_resp_img.png,"[0.5, 0]",left,stim/silver_coin.png,silver,,,,,training,,,silver,deval,,,,,0.0,0.0,0.0,0.0,0.0,0.0,0.0,0.0,,,,,,,,,0.0,training_resp,,12.12029549552244,6.098638001509244,0.0,,left,silver,0.0,242.0,2.0,right,2023_Sep_22_1512,habits_v_MRI,5.0,40.0,1.0,5.0,30.0,15.0,5.0,15.0,30.0,30.0,60.0,RR,60.03380067093336,
18.0,0.0,resp1,stim/left_resp_img.png,"[0.5, 0]",left,stim/silver_coin.png,silver,,,,,training,,,silver,deval,,,,,0.0,0.0,0.0,0.0,0.0,0.0,0.0,0.0,,,,,,,,,0.0,training_resp,,12.420235146040795,6.398623398010386,0.0,,left,silver,0.0,242.0,2.0,right,2023_Sep_22_1512,habits_v_MRI,5.0,40.0,1.0,5.0,30.0,15.0,5.0,15.0,30.0,30.0,60.0,RR,60.03380067093336,
18.0,0.0,resp1,stim/left_resp_img.png,"[0.5, 0]",left,stim/silver_coin.png,silver,,,,,training,,,silver,deval,,,,,0.0,0.0,0.0,0.0,0.0,0.0,0.0,0.0,,,,,,,,,0.0,training_resp,,12.703768119507004,6.681798027973855,0.0,,left,silver,0.0,242.0,2.0,right,2023_Sep_22_1512,habits_v_MRI,5.0,40.0,1.0,5.0,30.0,15.0,5.0,15.0,30.0,30.0,60.0,RR,60.03380067093336,
18.0,0.0,resp1,stim/left_resp_img.png,"[0.5, 0]",left,stim/silver_coin.png,silver,,,,,training,,,silver,deval,,,,,0.0,0.0,0.0,0.0,0.0,0.0,0.0,0.0,,,,,,,,,0.0,training_resp,,12.9871497793647,6.965443020453677,0.0,,left,silver,0.0,242.0,2.0,right,2023_Sep_22_1512,habits_v_MRI,5.0,40.0,1.0,5.0,30.0,15.0,5.0,15.0,30.0,30.0,60.0,RR,60.03380067093336,
18.0,0.0,resp1,stim/left_resp_img.png,"[0.5, 0]",left,stim/silver_coin.png,silver,,,,,training,,,silver,deval,,,,,0.0,0.0,0.0,0.0,0.0,0.0,0.0,0.0,,,,,,,,,0.0,training_resp,,13.286827270232608,7.265005559893325,0.0,,left,silver,0.0,242.0,2.0,right,2023_Sep_22_1512,habits_v_MRI,5.0,40.0,1.0,5.0,30.0,15.0,5.0,15.0,30.0,30.0,60.0,RR,60.03380067093336,
18.0,0.0,resp1,stim/left_resp_img.png,"[0.5, 0]",left,stim/silver_coin.png,silver,,,,,training,,,silver,deval,,,,,0.0,0.0,0.0,0.0,0.0,0.0,0.0,0.0,,,,,,,,,0.0,training_resp,,13.58750882660388,7.565527591854334,0.0,,left,silver,0.0,242.0,2.0,right,2023_Sep_22_1512,habits_v_MRI,5.0,40.0,1.0,5.0,30.0,15.0,5.0,15.0,30.0,30.0,60.0,RR,60.03380067093336,
18.0,0.0,resp1,stim/left_resp_img.png,"[0.5, 0]",left,stim/silver_coin.png,silver,,,,,training,,,silver,deval,,,,,0.0,0.0,0.0,0.0,0.0,0.0,0.0,0.0,,,,,,,,,0.0,training_resp,,13.903446372802136,7.881655746256001,0.0,,left,silver,0.0,242.0,2.0,right,2023_Sep_22_1512,habits_v_MRI,5.0,40.0,1.0,5.0,30.0,15.0,5.0,15.0,30.0,30.0,60.0,RR,60.03380067093336,
18.0,0.0,resp1,stim/left_resp_img.png,"[0.5, 0]",left,stim/silver_coin.png,silver,,,,,training,,,silver,deval,,,,,0.0,0.0,0.0,0.0,0.0,0.0,0.0,0.0,,,,,,,,,0.0,training_resp,,14.170062718883855,8.148328395094723,0.0,,left,silver,0.0,242.0,2.0,right,2023_Sep_22_1512,habits_v_MRI,5.0,40.0,1.0,5.0,30.0,15.0,5.0,15.0,30.0,30.0,60.0,RR,60.03380067093336,
18.0,0.0,resp1,stim/left_resp_img.png,"[0.5, 0]",left,stim/silver_coin.png,silver,,,,,training,,,silver,deval,,,,,0.0,0.0,0.0,0.0,0.0,0.0,0.0,0.0,,,,,,,,,0.0,training_resp,,14.436645048757782,8.414943568233866,0.0,,left,silver,0.0,242.0,2.0,right,2023_Sep_22_1512,habits_v_MRI,5.0,40.0,1.0,5.0,30.0,15.0,5.0,15.0,30.0,30.0,60.0,RR,60.03380067093336,
18.0,0.0,resp1,stim/left_resp_img.png,"[0.5, 0]",left,stim/silver_coin.png,silver,,,,,training,,,silver,deval,,,,,0.0,0.0,0.0,0.0,0.0,0.0,0.0,0.0,,,,,,,,,0.0,training_resp,,14.70335787194199,8.68162442787434,0.0,,left,silver,0.0,242.0,2.0,right,2023_Sep_22_1512,habits_v_MRI,5.0,40.0,1.0,5.0,30.0,15.0,5.0,15.0,30.0,30.0,60.0,RR,60.03380067093336,
18.0,0.0,resp1,stim/left_resp_img.png,"[0.5, 0]",left,stim/silver_coin.png,silver,,,,,training,,,silver,deval,,,,,0.0,0.0,0.0,0.0,0.0,0.0,0.0,0.0,,,,,,,,,0.0,training_resp,,14.9699689396366,8.948238134762505,0.0,,left,silver,0.0,242.0,2.0,right,2023_Sep_22_1512,habits_v_MRI,5.0,40.0,1.0,5.0,30.0,15.0,5.0,15.0,30.0,30.0,60.0,RR,60.03380067093336,
18.0,0.0,resp1,stim/left_resp_img.png,"[0.5, 0]",left,stim/silver_coin.png,silver,,,,,training,,,silver,deval,,,,,0.0,0.0,0.0,0.0,0.0,0.0,0.0,0.0,,,,,,,,,0.0,training_resp,,15.220118200551951,9.198340183502296,0.0,,left,silver,0.0,242.0,2.0,right,2023_Sep_22_1512,habits_v_MRI,5.0,40.0,1.0,5.0,30.0,15.0,5.0,15.0,30.0,30.0,60.0,RR,60.03380067093336,
18.0,0.0,resp1,stim/left_resp_img.png,"[0.5, 0]",left,stim/silver_coin.png,silver,,,,,training,,,silver,deval,,,,,0.0,0.0,0.0,0.0,0.0,0.0,0.0,0.0,,,,,,,,,0.0,training_resp,,15.486504643806256,9.464800230838591,0.0,,left,silver,0.0,242.0,2.0,right,2023_Sep_22_1512,habits_v_MRI,5.0,40.0,1.0,5.0,30.0,15.0,5.0,15.0,30.0,30.0,60.0,RR,60.03380067093336,
18.0,0.0,resp1,stim/left_resp_img.png,"[0.5, 0]",left,stim/silver_coin.png,silver,,,,,training,,,silver,deval,,,,,0.0,0.0,0.0,0.0,0.0,0.0,0.0,0.0,,,,,,,,,0.0,training_resp,,15.986554495175367,9.964780876762234,0.0,,left,silver,0.0,242.0,2.0,right,2023_Sep_22_1512,habits_v_MRI,5.0,40.0,1.0,5.0,30.0,15.0,5.0,15.0,30.0,30.0,60.0,RR,60.03380067093336,
18.0,0.0,resp1,stim/left_resp_img.png,"[0.5, 0]",left,stim/silver_coin.png,silver,,,,,training,,,silver,deval,,,,,0.0,0.0,0.0,0.0,0.0,0.0,0.0,0.0,,,,,,,,,0.0,training_resp,,16.286543410562444,10.264778002980163,0.0,,left,silver,0.0,242.0,2.0,right,2023_Sep_22_1512,habits_v_MRI,5.0,40.0,1.0,5.0,30.0,15.0,5.0,15.0,30.0,30.0,60.0,RR,60.03380067093336,
18.0,0.0,resp1,stim/left_resp_img.png,"[0.5, 0]",left,stim/silver_coin.png,silver,,,,,training,,,silver,deval,,,,,0.0,0.0,0.0,0.0,0.0,0.0,0.0,0.0,,,,,,,,,0.0,training_resp,,16.553247436444508,10.531443027488422,0.0,,left,silver,0.0,242.0,2.0,right,2023_Sep_22_1512,habits_v_MRI,5.0,40.0,1.0,5.0,30.0,15.0,5.0,15.0,30.0,30.0,60.0,RR,60.03380067093336,
18.0,0.0,resp1,stim/left_resp_img.png,"[0.5, 0]",left,stim/silver_coin.png,silver,,,,,training,,,silver,deval,,,,,0.0,0.0,0.0,0.0,0.0,0.0,0.0,0.0,,,,,,,,,0.0,training_resp,,16.853148378810147,10.831422852323158,0.0,,left,silver,0.0,242.0,2.0,right,2023_Sep_22_1512,habits_v_MRI,5.0,40.0,1.0,5.0,30.0,15.0,5.0,15.0,30.0,30.0,60.0,RR,60.03380067093336,
18.0,0.0,resp1,stim/left_resp_img.png,"[0.5, 0]",left,stim/silver_coin.png,silver,,,,,training,,,silver,deval,,,,,0.0,0.0,0.0,0.0,0.0,0.0,0.0,0.0,,,,,,,,,0.0,training_resp,,17.136410102102673,11.114696598611772,0.0,,left,silver,0.0,242.0,2.0,right,2023_Sep_22_1512,habits_v_MRI,5.0,40.0,1.0,5.0,30.0,15.0,5.0,15.0,30.0,30.0,60.0,RR,60.03380067093336,
18.0,0.0,resp1,stim/left_resp_img.png,"[0.5, 0]",left,stim/silver_coin.png,silver,,,,,training,,,silver,deval,,,,,0.0,0.0,0.0,0.0,0.0,0.0,0.0,0.0,,,,,,,,,0.0,training_resp,,17.58641708130017,11.564669561543267,0.0,,left,silver,0.0,242.0,2.0,right,2023_Sep_22_1512,habits_v_MRI,5.0,40.0,1.0,5.0,30.0,15.0,5.0,15.0,30.0,30.0,60.0,RR,60.03380067093336,
18.0,0.0,resp1,stim/left_resp_img.png,"[0.5, 0]",left,stim/silver_coin.png,silver,,,,,training,,,silver,deval,,,,,0.0,0.0,0.0,0.0,0.0,0.0,0.0,0.0,,,,,,,,,0.0,training_resp,,18.20319160289364,12.181382208800642,0.0,17.0,left,silver,1.0,242.0,2.0,right,2023_Sep_22_1512,habits_v_MRI,5.0,40.0,1.0,5.0,30.0,15.0,5.0,15.0,30.0,30.0,60.0,RR,60.03380067093336,
18.0,0.0,resp1,stim/left_resp_img.png,"[0.5, 0]",left,stim/silver_coin.png,silver,,,,,training,,,silver,deval,,,,,0.0,0.0,0.0,0.0,0.0,0.0,0.0,0.0,,,,,,,,,0.0,training_resp,,18.786360133439302,12.764606748824008,0.0,,left,silver,0.0,242.0,2.0,right,2023_Sep_22_1512,habits_v_MRI,5.0,40.0,1.0,5.0,30.0,15.0,5.0,15.0,30.0,30.0,60.0,RR,60.03380067093336,
18.0,0.0,resp1,stim/left_resp_img.png,"[0.5, 0]",left,stim/silver_coin.png,silver,,,,,training,,,silver,deval,,,,,0.0,0.0,0.0,0.0,0.0,0.0,0.0,0.0,,,,,,,,,0.0,training_resp,,19.436259726877324,13.414521884173157,0.0,,left,silver,0.0,242.0,2.0,right,2023_Sep_22_1512,habits_v_MRI,5.0,40.0,1.0,5.0,30.0,15.0,5.0,15.0,30.0,30.0,60.0,RR,60.03380067093336,
18.0,0.0,resp1,stim/left_resp_img.png,"[0.5, 0]",left,stim/silver_coin.png,silver,,,,,training,,,silver,deval,,,,,0.0,0.0,0.0,0.0,0.0,0.0,0.0,0.0,,,,,,,,,0.0,training_resp,,20.036328463145765,14.014538129849823,0.0,,left,silver,0.0,242.0,2.0,right,2023_Sep_22_1512,habits_v_MRI,5.0,40.0,1.0,5.0,30.0,15.0,5.0,15.0,30.0,30.0,60.0,RR,60.03380067093336,
18.0,0.0,resp1,stim/left_resp_img.png,"[0.5, 0]",left,stim/silver_coin.png,silver,,,,,training,,,silver,deval,,,,,0.0,0.0,0.0,0.0,0.0,0.0,0.0,0.0,,,,,,,,,0.0,training_resp,,20.50286674781819,14.48109958076384,0.0,,left,silver,0.0,242.0,2.0,right,2023_Sep_22_1512,habits_v_MRI,5.0,40.0,1.0,5.0,30.0,15.0,5.0,15.0,30.0,30.0,60.0,RR,60.03380067093336,
18.0,0.0,resp1,stim/left_resp_img.png,"[0.5, 0]",left,stim/silver_coin.png,silver,,,,,training,,,silver,deval,,,,,0.0,0.0,0.0,0.0,0.0,0.0,0.0,0.0,,,,,,,,,0.0,training_resp,,20.952778129663784,14.931063159921903,0.0,,left,silver,0.0,242.0,2.0,right,2023_Sep_22_1512,habits_v_MRI,5.0,40.0,1.0,5.0,30.0,15.0,5.0,15.0,30.0,30.0,60.0,RR,60.03380067093336,
18.0,0.0,resp1,stim/left_resp_img.png,"[0.5, 0]",left,stim/silver_coin.png,silver,,,,,training,,,silver,deval,,,,,0.0,0.0,0.0,0.0,0.0,0.0,0.0,0.0,,,,,,,,,0.0,training_resp,,21.26941271548276,15.247659330867464,0.0,,left,silver,0.0,242.0,2.0,right,2023_Sep_22_1512,habits_v_MRI,5.0,40.0,1.0,5.0,30.0,15.0,5.0,15.0,30.0,30.0,60.0,RR,60.03380067093336,
18.0,0.0,resp1,stim/left_resp_img.png,"[0.5, 0]",left,stim/silver_coin.png,silver,,,,,training,,,silver,deval,,,,,0.0,0.0,0.0,0.0,0.0,0.0,0.0,0.0,,,,,,,,,0.0,training_resp,,21.65281941834837,15.631053717486791,0.0,,left,silver,0.0,242.0,2.0,right,2023_Sep_22_1512,habits_v_MRI,5.0,40.0,1.0,5.0,30.0,15.0,5.0,15.0,30.0,30.0,60.0,RR,60.03380067093336,
18.0,0.0,resp1,stim/left_resp_img.png,"[0.5, 0]",left,stim/silver_coin.png,silver,,,,,training,,,silver,deval,,,,,0.0,0.0,0.0,0.0,0.0,0.0,0.0,0.0,,,,,,,,,0.0,training_resp,,21.95274645937025,15.931022399105132,0.0,,left,silver,0.0,242.0,2.0,right,2023_Sep_22_1512,habits_v_MRI,5.0,40.0,1.0,5.0,30.0,15.0,5.0,15.0,30.0,30.0,60.0,RR,60.03380067093336,
18.0,0.0,resp1,stim/left_resp_img.png,"[0.5, 0]",left,stim/silver_coin.png,silver,,,,,training,,,silver,deval,,,,,0.0,0.0,0.0,0.0,0.0,0.0,0.0,0.0,,,,,,,,,0.0,training_resp,,22.2194455001154,16.197662497899728,0.0,,left,silver,0.0,242.0,2.0,right,2023_Sep_22_1512,habits_v_MRI,5.0,40.0,1.0,5.0,30.0,15.0,5.0,15.0,30.0,30.0,60.0,RR,60.03380067093336,
18.0,0.0,resp1,stim/left_resp_img.png,"[0.5, 0]",left,stim/silver_coin.png,silver,,,,,training,,,silver,deval,,,,,0.0,0.0,0.0,0.0,0.0,0.0,0.0,0.0,,,,,,,,,0.0,training_resp,,22.5194276709226,16.497643495735247,0.0,,left,silver,0.0,242.0,2.0,right,2023_Sep_22_1512,habits_v_MRI,5.0,40.0,1.0,5.0,30.0,15.0,5.0,15.0,30.0,30.0,60.0,RR,60.03380067093336,
18.0,0.0,resp1,stim/left_resp_img.png,"[0.5, 0]",left,stim/silver_coin.png,silver,,,,,training,,,silver,deval,,,,,0.0,0.0,0.0,0.0,0.0,0.0,0.0,0.0,,,,,,,,,0.0,training_resp,,22.853348957345588,16.831387663114583,0.0,,left,silver,0.0,242.0,2.0,right,2023_Sep_22_1512,habits_v_MRI,5.0,40.0,1.0,5.0,30.0,15.0,5.0,15.0,30.0,30.0,60.0,RR,60.03380067093336,
18.0,0.0,resp1,stim/left_resp_img.png,"[0.5, 0]",left,stim/silver_coin.png,silver,,,,,training,,,silver,deval,,,,,0.0,0.0,0.0,0.0,0.0,0.0,0.0,0.0,,,,,,,,,0.0,training_resp,,23.169399695500037,17.14761405409081,0.0,,left,silver,0.0,242.0,2.0,right,2023_Sep_22_1512,habits_v_MRI,5.0,40.0,1.0,5.0,30.0,15.0,5.0,15.0,30.0,30.0,60.0,RR,60.03380067093336,
18.0,0.0,resp1,stim/left_resp_img.png,"[0.5, 0]",left,stim/silver_coin.png,silver,,,,,training,,,silver,deval,,,,,0.0,0.0,0.0,0.0,0.0,0.0,0.0,0.0,,,,,,,,,0.0,training_resp,,23.58580390928546,17.56419978555641,0.0,,left,silver,0.0,242.0,2.0,right,2023_Sep_22_1512,habits_v_MRI,5.0,40.0,1.0,5.0,30.0,15.0,5.0,15.0,30.0,30.0,60.0,RR,60.03380067093336,
18.0,0.0,resp1,stim/left_resp_img.png,"[0.5, 0]",left,stim/silver_coin.png,silver,,,,,training,,,silver,deval,,,,,0.0,0.0,0.0,0.0,0.0,0.0,0.0,0.0,,,,,,,,,0.0,training_resp,,23.919178003445268,17.897429603966884,0.0,,left,silver,0.0,242.0,2.0,right,2023_Sep_22_1512,habits_v_MRI,5.0,40.0,1.0,5.0,30.0,15.0,5.0,15.0,30.0,30.0,60.0,RR,60.03380067093336,
18.0,0.0,resp1,stim/left_resp_img.png,"[0.5, 0]",left,stim/silver_coin.png,silver,,,,,training,,,silver,deval,,,,,0.0,0.0,0.0,0.0,0.0,0.0,0.0,0.0,,,,,,,,,0.0,training_resp,,24.219365737895718,18.19754373430624,0.0,,left,silver,0.0,242.0,2.0,right,2023_Sep_22_1512,habits_v_MRI,5.0,40.0,1.0,5.0,30.0,15.0,5.0,15.0,30.0,30.0,60.0,RR,60.03380067093336,
18.0,0.0,resp1,stim/left_resp_img.png,"[0.5, 0]",left,stim/silver_coin.png,silver,,,,,training,,,silver,deval,,,,,0.0,0.0,0.0,0.0,0.0,0.0,0.0,0.0,,,,,,,,,0.0,training_resp,,24.5192417545768,18.49746315102675,0.0,,left,silver,0.0,242.0,2.0,right,2023_Sep_22_1512,habits_v_MRI,5.0,40.0,1.0,5.0,30.0,15.0,5.0,15.0,30.0,30.0,60.0,RR,60.03380067093336,
18.0,0.0,resp1,stim/left_resp_img.png,"[0.5, 0]",left,stim/silver_coin.png,silver,,,,,training,,,silver,deval,,,,,0.0,0.0,0.0,0.0,0.0,0.0,0.0,0.0,,,,,,,,,0.0,training_resp,,24.81928345377673,18.797489308344662,0.0,17.0,left,silver,1.0,242.0,2.0,right,2023_Sep_22_1512,habits_v_MRI,5.0,40.0,1.0,5.0,30.0,15.0,5.0,15.0,30.0,30.0,60.0,RR,60.03380067093336,
18.0,0.0,resp1,stim/left_resp_img.png,"[0.5, 0]",left,stim/silver_coin.png,silver,,,,,training,,,silver,deval,,,,,0.0,0.0,0.0,0.0,0.0,0.0,0.0,0.0,,,,,,,,,0.0,training_resp,,25.95255878358148,19.93074029890704,0.0,,left,silver,0.0,242.0,2.0,right,2023_Sep_22_1512,habits_v_MRI,5.0,40.0,1.0,5.0,30.0,15.0,5.0,15.0,30.0,30.0,60.0,RR,60.03380067093336,
18.0,0.0,resp1,stim/left_resp_img.png,"[0.5, 0]",left,stim/silver_coin.png,silver,,,,,training,,,silver,deval,,,,,0.0,0.0,0.0,0.0,0.0,0.0,0.0,0.0,,,,,,,,,0.0,training_resp,,26.202401018614182,20.1806578974938,0.0,,left,silver,0.0,242.0,2.0,right,2023_Sep_22_1512,habits_v_MRI,5.0,40.0,1.0,5.0,30.0,15.0,5.0,15.0,30.0,30.0,60.0,RR,60.03380067093336,
18.0,0.0,resp1,stim/left_resp_img.png,"[0.5, 0]",left,stim/silver_coin.png,silver,,,,,training,,,silver,deval,,,,,0.0,0.0,0.0,0.0,0.0,0.0,0.0,0.0,,,,,,,,,0.0,training_resp,,26.48580291224061,20.464047768182358,0.0,,left,silver,0.0,242.0,2.0,right,2023_Sep_22_1512,habits_v_MRI,5.0,40.0,1.0,5.0,30.0,15.0,5.0,15.0,30.0,30.0,60.0,RR,60.03380067093336,
18.0,0.0,resp1,stim/left_resp_img.png,"[0.5, 0]",left,stim/silver_coin.png,silver,,,,,training,,,silver,deval,,,,,0.0,0.0,0.0,0.0,0.0,0.0,0.0,0.0,,,,,,,,,0.0,training_resp,,26.76907372608548,20.747314183361595,0.0,,left,silver,0.0,242.0,2.0,right,2023_Sep_22_1512,habits_v_MRI,5.0,40.0,1.0,5.0,30.0,15.0,5.0,15.0,30.0,30.0,60.0,RR,60.03380067093336,
18.0,0.0,resp1,stim/left_resp_img.png,"[0.5, 0]",left,stim/silver_coin.png,silver,,,,,training,,,silver,deval,,,,,0.0,0.0,0.0,0.0,0.0,0.0,0.0,0.0,,,,,,,,,0.0,training_resp,,27.06907935635536,21.04732186632464,0.0,,left,silver,0.0,242.0,2.0,right,2023_Sep_22_1512,habits_v_MRI,5.0,40.0,1.0,5.0,30.0,15.0,5.0,15.0,30.0,30.0,60.0,RR,60.03380067093336,
18.0,0.0,resp1,stim/left_resp_img.png,"[0.5, 0]",left,stim/silver_coin.png,silver,,,,,training,,,silver,deval,,,,,0.0,0.0,0.0,0.0,0.0,0.0,0.0,0.0,,,,,,,,,0.0,training_resp,,27.352410871593747,21.33062141801929,0.0,,left,silver,0.0,242.0,2.0,right,2023_Sep_22_1512,habits_v_MRI,5.0,40.0,1.0,5.0,30.0,15.0,5.0,15.0,30.0,30.0,60.0,RR,60.03380067093336,
18.0,0.0,resp1,stim/left_resp_img.png,"[0.5, 0]",left,stim/silver_coin.png,silver,,,,,training,,,silver,deval,,,,,0.0,0.0,0.0,0.0,0.0,0.0,0.0,0.0,,,,,,,,,0.0,training_resp,,27.63573476247257,21.613947361620376,0.0,,left,silver,0.0,242.0,2.0,right,2023_Sep_22_1512,habits_v_MRI,5.0,40.0,1.0,5.0,30.0,15.0,5.0,15.0,30.0,30.0,60.0,RR,60.03380067093336,
18.0,0.0,resp1,stim/left_resp_img.png,"[0.5, 0]",left,stim/silver_coin.png,silver,,,,,training,,,silver,deval,,,,,0.0,0.0,0.0,0.0,0.0,0.0,0.0,0.0,,,,,,,,,0.0,training_resp,,27.918956897890894,21.89722492004512,0.0,,left,silver,0.0,242.0,2.0,right,2023_Sep_22_1512,habits_v_MRI,5.0,40.0,1.0,5.0,30.0,15.0,5.0,15.0,30.0,30.0,60.0,RR,60.03380067093336,
18.0,0.0,resp1,stim/left_resp_img.png,"[0.5, 0]",left,stim/silver_coin.png,silver,,,,,training,,,silver,deval,,,,,0.0,0.0,0.0,0.0,0.0,0.0,0.0,0.0,,,,,,,,,0.0,training_resp,,28.18570754947723,22.16392689323402,0.0,,left,silver,0.0,242.0,2.0,right,2023_Sep_22_1512,habits_v_MRI,5.0,40.0,1.0,5.0,30.0,15.0,5.0,15.0,30.0,30.0,60.0,RR,60.03380067093336,
18.0,0.0,resp1,stim/left_resp_img.png,"[0.5, 0]",left,stim/silver_coin.png,silver,,,,,training,,,silver,deval,,,,,0.0,0.0,0.0,0.0,0.0,0.0,0.0,0.0,,,,,,,,,0.0,training_resp,,28.46895490383031,22.44722175301285,0.0,,left,silver,0.0,242.0,2.0,right,2023_Sep_22_1512,habits_v_MRI,5.0,40.0,1.0,5.0,30.0,15.0,5.0,15.0,30.0,30.0,60.0,RR,60.03380067093336,
18.0,0.0,resp1,stim/left_resp_img.png,"[0.5, 0]",left,stim/silver_coin.png,silver,,,,,training,,,silver,deval,,,,,0.0,0.0,0.0,0.0,0.0,0.0,0.0,0.0,,,,,,,,,0.0,training_resp,,28.78576103708474,22.76388038482401,0.0,,left,silver,0.0,242.0,2.0,right,2023_Sep_22_1512,habits_v_MRI,5.0,40.0,1.0,5.0,30.0,15.0,5.0,15.0,30.0,30.0,60.0,RR,60.03380067093336,
18.0,0.0,resp1,stim/left_resp_img.png,"[0.5, 0]",left,stim/silver_coin.png,silver,,,,,training,,,silver,deval,,,,,0.0,0.0,0.0,0.0,0.0,0.0,0.0,0.0,,,,,,,,,0.0,training_resp,,29.085368442785693,23.06383352453122,0.0,,left,silver,0.0,242.0,2.0,right,2023_Sep_22_1512,habits_v_MRI,5.0,40.0,1.0,5.0,30.0,15.0,5.0,15.0,30.0,30.0,60.0,RR,60.03380067093336,
18.0,0.0,resp1,stim/left_resp_img.png,"[0.5, 0]",left,stim/silver_coin.png,silver,,,,,training,,,silver,deval,,,,,0.0,0.0,0.0,0.0,0.0,0.0,0.0,0.0,,,,,,,,,0.0,training_resp,,29.38564063134254,23.36393651162507,0.0,,left,silver,0.0,242.0,2.0,right,2023_Sep_22_1512,habits_v_MRI,5.0,40.0,1.0,5.0,30.0,15.0,5.0,15.0,30.0,30.0,60.0,RR,60.03380067093336,
18.0,0.0,resp1,stim/left_resp_img.png,"[0.5, 0]",left,stim/silver_coin.png,silver,,,,,training,,,silver,deval,,,,,0.0,0.0,0.0,0.0,0.0,0.0,0.0,0.0,,,,,,,,,0.0,training_resp,,29.651660813513445,23.630234102078248,0.0,,left,silver,0.0,242.0,2.0,right,2023_Sep_22_1512,habits_v_MRI,5.0,40.0,1.0,5.0,30.0,15.0,5.0,15.0,30.0,30.0,60.0,RR,60.03380067093336,
18.0,0.0,resp1,stim/left_resp_img.png,"[0.5, 0]",left,stim/silver_coin.png,silver,,,,,training,,,silver,deval,,,,,0.0,0.0,0.0,0.0,0.0,0.0,0.0,0.0,,,,,,,,,0.0,training_resp,,29.934953913849316,23.91346268885536,0.0,,left,silver,0.0,242.0,2.0,right,2023_Sep_22_1512,habits_v_MRI,5.0,40.0,1.0,5.0,30.0,15.0,5.0,15.0,30.0,30.0,60.0,RR,60.03380067093336,
18.0,0.0,resp1,stim/left_resp_img.png,"[0.5, 0]",left,stim/silver_coin.png,silver,,,,,training,,,silver,deval,,,,,0.0,0.0,0.0,0.0,0.0,0.0,0.0,0.0,,,,,,,,,0.0,training_resp,,30.36848119838396,24.34691343686427,0.0,,left,silver,0.0,242.0,2.0,right,2023_Sep_22_1512,habits_v_MRI,5.0,40.0,1.0,5.0,30.0,15.0,5.0,15.0,30.0,30.0,60.0,RR,60.03380067093336,
18.0,0.0,resp1,stim/left_resp_img.png,"[0.5, 0]",left,stim/silver_coin.png,silver,,,,,training,,,silver,deval,,,,,0.0,0.0,0.0,0.0,0.0,0.0,0.0,0.0,,,,,,,,,0.0,training_resp,,30.91853961249581,24.897055425331928,0.0,12.0,left,silver,1.0,242.0,2.0,right,2023_Sep_22_1512,habits_v_MRI,5.0,40.0,1.0,5.0,30.0,15.0,5.0,15.0,30.0,30.0,60.0,RR,60.03380067093336,
18.0,0.0,resp1,stim/left_resp_img.png,"[0.5, 0]",left,stim/silver_coin.png,silver,,,,,training,,,silver,deval,,,,,0.0,0.0,0.0,0.0,0.0,0.0,0.0,0.0,,,,,,,,,0.0,training_resp,,31.802044845127966,25.780287061847048,0.0,,left,silver,0.0,242.0,2.0,right,2023_Sep_22_1512,habits_v_MRI,5.0,40.0,1.0,5.0,30.0,15.0,5.0,15.0,30.0,30.0,60.0,RR,60.03380067093336,
18.0,0.0,resp1,stim/left_resp_img.png,"[0.5, 0]",left,stim/silver_coin.png,silver,,,,,training,,,silver,deval,,,,,0.0,0.0,0.0,0.0,0.0,0.0,0.0,0.0,,,,,,,,,0.0,training_resp,,32.40203997728531,26.380254042655,0.0,,left,silver,0.0,242.0,2.0,right,2023_Sep_22_1512,habits_v_MRI,5.0,40.0,1.0,5.0,30.0,15.0,5.0,15.0,30.0,30.0,60.0,RR,60.03380067093336,
18.0,0.0,resp1,stim/left_resp_img.png,"[0.5, 0]",left,stim/silver_coin.png,silver,,,,,training,,,silver,deval,,,,,0.0,0.0,0.0,0.0,0.0,0.0,0.0,0.0,,,,,,,,,0.0,training_resp,,32.9519998615724,26.930232108046766,0.0,,left,silver,0.0,242.0,2.0,right,2023_Sep_22_1512,habits_v_MRI,5.0,40.0,1.0,5.0,30.0,15.0,5.0,15.0,30.0,30.0,60.0,RR,60.03380067093336,
18.0,0.0,resp1,stim/left_resp_img.png,"[0.5, 0]",left,stim/silver_coin.png,silver,,,,,training,,,silver,deval,,,,,0.0,0.0,0.0,0.0,0.0,0.0,0.0,0.0,,,,,,,,,0.0,training_resp,,33.485238711873535,27.463473304291256,0.0,,left,silver,0.0,242.0,2.0,right,2023_Sep_22_1512,habits_v_MRI,5.0,40.0,1.0,5.0,30.0,15.0,5.0,15.0,30.0,30.0,60.0,RR,60.03380067093336,
18.0,0.0,resp1,stim/left_resp_img.png,"[0.5, 0]",left,stim/silver_coin.png,silver,,,,,training,,,silver,deval,,,,,0.0,0.0,0.0,0.0,0.0,0.0,0.0,0.0,,,,,,,,,0.0,training_resp,,33.96867016446777,27.946843175741375,0.0,,left,silver,0.0,242.0,2.0,right,2023_Sep_22_1512,habits_v_MRI,5.0,40.0,1.0,5.0,30.0,15.0,5.0,15.0,30.0,30.0,60.0,RR,60.03380067093336,
18.0,0.0,resp1,stim/left_resp_img.png,"[0.5, 0]",left,stim/silver_coin.png,silver,,,,,training,,,silver,deval,,,,,0.0,0.0,0.0,0.0,0.0,0.0,0.0,0.0,,,,,,,,,0.0,training_resp,,34.45270511205308,28.430508929828648,0.0,,left,silver,0.0,242.0,2.0,right,2023_Sep_22_1512,habits_v_MRI,5.0,40.0,1.0,5.0,30.0,15.0,5.0,15.0,30.0,30.0,60.0,RR,60.03380067093336,
18.0,0.0,resp1,stim/left_resp_img.png,"[0.5, 0]",left,stim/silver_coin.png,silver,,,,,training,,,silver,deval,,,,,0.0,0.0,0.0,0.0,0.0,0.0,0.0,0.0,,,,,,,,,0.0,training_resp,,34.88459316577064,28.863167040835837,0.0,,left,silver,0.0,242.0,2.0,right,2023_Sep_22_1512,habits_v_MRI,5.0,40.0,1.0,5.0,30.0,15.0,5.0,15.0,30.0,30.0,60.0,RR,60.03380067093336,
18.0,0.0,resp1,stim/left_resp_img.png,"[0.5, 0]",left,stim/silver_coin.png,silver,,,,,training,,,silver,deval,,,,,0.0,0.0,0.0,0.0,0.0,0.0,0.0,0.0,,,,,,,,,0.0,training_resp,,35.38486207000096,29.363259119272698,0.0,,left,silver,0.0,242.0,2.0,right,2023_Sep_22_1512,habits_v_MRI,5.0,40.0,1.0,5.0,30.0,15.0,5.0,15.0,30.0,30.0,60.0,RR,60.03380067093336,
18.0,0.0,resp1,stim/left_resp_img.png,"[0.5, 0]",left,stim/silver_coin.png,silver,,,,,training,,,silver,deval,,,,,0.0,0.0,0.0,0.0,0.0,0.0,0.0,0.0,,,,,,,,,0.0,training_resp,,35.83465967338998,29.81315290651401,0.0,,left,silver,0.0,242.0,2.0,right,2023_Sep_22_1512,habits_v_MRI,5.0,40.0,1.0,5.0,30.0,15.0,5.0,15.0,30.0,30.0,60.0,RR,60.03380067093336,
18.0,0.0,resp1,stim/left_resp_img.png,"[0.5, 0]",left,stim/silver_coin.png,silver,,,,,training,,,silver,deval,,,,,0.0,0.0,0.0,0.0,0.0,0.0,0.0,0.0,,,,,,,,,0.0,training_resp,,36.33482799513149,30.31323706737021,0.0,,left,silver,0.0,242.0,2.0,right,2023_Sep_22_1512,habits_v_MRI,5.0,40.0,1.0,5.0,30.0,15.0,5.0,15.0,30.0,30.0,60.0,RR,60.03380067093336,
18.0,0.0,resp1,stim/left_resp_img.png,"[0.5, 0]",left,stim/silver_coin.png,silver,,,,,training,,,silver,deval,,,,,0.0,0.0,0.0,0.0,0.0,0.0,0.0,0.0,,,,,,,,,0.0,training_resp,,36.83504998040735,30.813239413313568,0.0,,left,silver,0.0,242.0,2.0,right,2023_Sep_22_1512,habits_v_MRI,5.0,40.0,1.0,5.0,30.0,15.0,5.0,15.0,30.0,30.0,60.0,RR,60.03380067093336,
18.0,0.0,resp1,stim/left_resp_img.png,"[0.5, 0]",left,stim/silver_coin.png,silver,,,,,training,,,silver,deval,,,,,0.0,0.0,0.0,0.0,0.0,0.0,0.0,0.0,,,,,,,,,0.0,training_resp,,37.30174104491016,31.27992989134509,0.0,23.0,left,silver,1.0,242.0,2.0,right,2023_Sep_22_1512,habits_v_MRI,5.0,40.0,1.0,5.0,30.0,15.0,5.0,15.0,30.0,30.0,60.0,RR,60.03380067093336,
18.0,0.0,resp1,stim/left_resp_img.png,"[0.5, 0]",left,stim/silver_coin.png,silver,,,,,training,,,silver,deval,,,,,0.0,0.0,0.0,0.0,0.0,0.0,0.0,0.0,,,,,,,,,0.0,training_resp,,38.418257512297714,32.39651028579101,0.0,,left,silver,0.0,242.0,2.0,right,2023_Sep_22_1512,habits_v_MRI,5.0,40.0,1.0,5.0,30.0,15.0,5.0,15.0,30.0,30.0,60.0,RR,60.03380067093336,
18.0,0.0,resp1,stim/left_resp_img.png,"[0.5, 0]",left,stim/silver_coin.png,silver,,,,,training,,,silver,deval,,,,,0.0,0.0,0.0,0.0,0.0,0.0,0.0,0.0,,,,,,,,,0.0,training_resp,,38.65154703505687,32.629776642337674,0.0,,left,silver,0.0,242.0,2.0,right,2023_Sep_22_1512,habits_v_MRI,5.0,40.0,1.0,5.0,30.0,15.0,5.0,15.0,30.0,30.0,60.0,RR,60.03380067093336,
18.0,0.0,resp1,stim/left_resp_img.png,"[0.5, 0]",left,stim/silver_coin.png,silver,,,,,training,,,silver,deval,,,,,0.0,0.0,0.0,0.0,0.0,0.0,0.0,0.0,,,,,,,,,0.0,training_resp,,38.9182243757823,32.89647538983263,0.0,,left,silver,0.0,242.0,2.0,right,2023_Sep_22_1512,habits_v_MRI,5.0,40.0,1.0,5.0,30.0,15.0,5.0,15.0,30.0,30.0,60.0,RR,60.03380067093336,
18.0,0.0,resp1,stim/left_resp_img.png,"[0.5, 0]",left,stim/silver_coin.png,silver,,,,,training,,,silver,deval,,,,,0.0,0.0,0.0,0.0,0.0,0.0,0.0,0.0,,,,,,,,,0.0,training_resp,,39.18504569903598,33.16319378462504,0.0,,left,silver,0.0,242.0,2.0,right,2023_Sep_22_1512,habits_v_MRI,5.0,40.0,1.0,5.0,30.0,15.0,5.0,15.0,30.0,30.0,60.0,RR,60.03380067093336,
18.0,0.0,resp1,stim/left_resp_img.png,"[0.5, 0]",left,stim/silver_coin.png,silver,,,,,training,,,silver,deval,,,,,0.0,0.0,0.0,0.0,0.0,0.0,0.0,0.0,,,,,,,,,0.0,training_resp,,39.45144416525727,33.42970456308103,0.0,,left,silver,0.0,242.0,2.0,right,2023_Sep_22_1512,habits_v_MRI,5.0,40.0,1.0,5.0,30.0,15.0,5.0,15.0,30.0,30.0,60.0,RR,60.03380067093336,
18.0,0.0,resp1,stim/left_resp_img.png,"[0.5, 0]",left,stim/silver_coin.png,silver,,,,,training,,,silver,deval,,,,,0.0,0.0,0.0,0.0,0.0,0.0,0.0,0.0,,,,,,,,,0.0,training_resp,,39.968522076524096,33.94641679979395,0.0,,left,silver,0.0,242.0,2.0,right,2023_Sep_22_1512,habits_v_MRI,5.0,40.0,1.0,5.0,30.0,15.0,5.0,15.0,30.0,30.0,60.0,RR,60.03380067093336,
18.0,0.0,resp1,stim/left_resp_img.png,"[0.5, 0]",left,stim/silver_coin.png,silver,,,,,training,,,silver,deval,,,,,0.0,0.0,0.0,0.0,0.0,0.0,0.0,0.0,,,,,,,,,0.0,training_resp,,40.26807757813367,34.246345600287896,0.0,,left,silver,0.0,242.0,2.0,right,2023_Sep_22_1512,habits_v_MRI,5.0,40.0,1.0,5.0,30.0,15.0,5.0,15.0,30.0,30.0,60.0,RR,60.03380067093336,
18.0,0.0,resp1,stim/left_resp_img.png,"[0.5, 0]",left,stim/silver_coin.png,silver,,,,,training,,,silver,deval,,,,,0.0,0.0,0.0,0.0,0.0,0.0,0.0,0.0,,,,,,,,,0.0,training_resp,,40.56815769223613,34.54632777109509,0.0,,left,silver,0.0,242.0,2.0,right,2023_Sep_22_1512,habits_v_MRI,5.0,40.0,1.0,5.0,30.0,15.0,5.0,15.0,30.0,30.0,60.0,RR,60.03380067093336,
18.0,0.0,resp1,stim/left_resp_img.png,"[0.5, 0]",left,stim/silver_coin.png,silver,,,,,training,,,silver,deval,,,,,0.0,0.0,0.0,0.0,0.0,0.0,0.0,0.0,,,,,,,,,0.0,training_resp,,40.85134962358279,34.829601517354604,0.0,,left,silver,0.0,242.0,2.0,right,2023_Sep_22_1512,habits_v_MRI,5.0,40.0,1.0,5.0,30.0,15.0,5.0,15.0,30.0,30.0,60.0,RR,60.03380067093336,
18.0,0.0,resp1,stim/left_resp_img.png,"[0.5, 0]",left,stim/silver_coin.png,silver,,,,,training,,,silver,deval,,,,,0.0,0.0,0.0,0.0,0.0,0.0,0.0,0.0,,,,,,,,,0.0,training_resp,,41.118059807573445,35.09625686481013,0.0,,left,silver,0.0,242.0,2.0,right,2023_Sep_22_1512,habits_v_MRI,5.0,40.0,1.0,5.0,30.0,15.0,5.0,15.0,30.0,30.0,60.0,RR,60.03380067093336,
18.0,0.0,resp1,stim/left_resp_img.png,"[0.5, 0]",left,stim/silver_coin.png,silver,,,,,training,,,silver,deval,,,,,0.0,0.0,0.0,0.0,0.0,0.0,0.0,0.0,,,,,,,,,0.0,training_resp,,41.43475597453653,35.41294687366462,0.0,,left,silver,0.0,242.0,2.0,right,2023_Sep_22_1512,habits_v_MRI,5.0,40.0,1.0,5.0,30.0,15.0,5.0,15.0,30.0,30.0,60.0,RR,60.03380067093336,
18.0,0.0,resp1,stim/left_resp_img.png,"[0.5, 0]",left,stim/silver_coin.png,silver,,,,,training,,,silver,deval,,,,,0.0,0.0,0.0,0.0,0.0,0.0,0.0,0.0,,,,,,,,,0.0,training_resp,,41.73457392901764,35.71291848769761,0.0,,left,silver,0.0,242.0,2.0,right,2023_Sep_22_1512,habits_v_MRI,5.0,40.0,1.0,5.0,30.0,15.0,5.0,15.0,30.0,30.0,60.0,RR,60.03380067093336,
18.0,0.0,resp1,stim/left_resp_img.png,"[0.5, 0]",left,stim/silver_coin.png,silver,,,,,training,,,silver,deval,,,,,0.0,0.0,0.0,0.0,0.0,0.0,0.0,0.0,,,,,,,,,0.0,training_resp,,42.05129648785805,36.02956773570622,0.0,,left,silver,0.0,242.0,2.0,right,2023_Sep_22_1512,habits_v_MRI,5.0,40.0,1.0,5.0,30.0,15.0,5.0,15.0,30.0,30.0,60.0,RR,60.03380067093336,
18.0,0.0,resp1,stim/left_resp_img.png,"[0.5, 0]",left,stim/silver_coin.png,silver,,,,,training,,,silver,deval,,,,,0.0,0.0,0.0,0.0,0.0,0.0,0.0,0.0,,,,,,,,,0.0,training_resp,,42.31799640835379,36.29619581153384,0.0,,left,silver,0.0,242.0,2.0,right,2023_Sep_22_1512,habits_v_MRI,5.0,40.0,1.0,5.0,30.0,15.0,5.0,15.0,30.0,30.0,60.0,RR,60.03380067093336,
18.0,0.0,resp1,stim/left_resp_img.png,"[0.5, 0]",left,stim/silver_coin.png,silver,,,,,training,,,silver,deval,,,,,0.0,0.0,0.0,0.0,0.0,0.0,0.0,0.0,,,,,,,,,0.0,training_resp,,42.6513253430312,36.62953794217901,0.0,,left,silver,0.0,242.0,2.0,right,2023_Sep_22_1512,habits_v_MRI,5.0,40.0,1.0,5.0,30.0,15.0,5.0,15.0,30.0,30.0,60.0,RR,60.03380067093336,
18.0,0.0,resp1,stim/left_resp_img.png,"[0.5, 0]",left,stim/silver_coin.png,silver,,,,,training,,,silver,deval,,,,,0.0,0.0,0.0,0.0,0.0,0.0,0.0,0.0,,,,,,,,,0.0,training_resp,,42.9345606744173,36.91279761274927,0.0,,left,silver,0.0,242.0,2.0,right,2023_Sep_22_1512,habits_v_MRI,5.0,40.0,1.0,5.0,30.0,15.0,5.0,15.0,30.0,30.0,60.0,RR,60.03380067093336,
18.0,0.0,resp1,stim/left_resp_img.png,"[0.5, 0]",left,stim/silver_coin.png,silver,,,,,training,,,silver,deval,,,,,0.0,0.0,0.0,0.0,0.0,0.0,0.0,0.0,,,,,,,,,0.0,training_resp,,43.2513627022272,37.22950169729302,0.0,,left,silver,0.0,242.0,2.0,right,2023_Sep_22_1512,habits_v_MRI,5.0,40.0,1.0,5.0,30.0,15.0,5.0,15.0,30.0,30.0,60.0,RR,60.03380067093336,
18.0,0.0,resp1,stim/left_resp_img.png,"[0.5, 0]",left,stim/silver_coin.png,silver,,,,,training,,,silver,deval,,,,,0.0,0.0,0.0,0.0,0.0,0.0,0.0,0.0,,,,,,,,,0.0,training_resp,,43.53459040928283,37.5127994895156,0.0,,left,silver,0.0,242.0,2.0,right,2023_Sep_22_1512,habits_v_MRI,5.0,40.0,1.0,5.0,30.0,15.0,5.0,15.0,30.0,30.0,60.0,RR,60.03380067093336,
18.0,0.0,resp1,stim/left_resp_img.png,"[0.5, 0]",left,stim/silver_coin.png,silver,,,,,training,,,silver,deval,,,,,0.0,0.0,0.0,0.0,0.0,0.0,0.0,0.0,,,,,,,,,0.0,training_resp,,43.81788673531264,37.796139508805936,0.0,,left,silver,0.0,242.0,2.0,right,2023_Sep_22_1512,habits_v_MRI,5.0,40.0,1.0,5.0,30.0,15.0,5.0,15.0,30.0,30.0,60.0,RR,60.03380067093336,
18.0,0.0,resp1,stim/left_resp_img.png,"[0.5, 0]",left,stim/silver_coin.png,silver,,,,,training,,,silver,deval,,,,,0.0,0.0,0.0,0.0,0.0,0.0,0.0,0.0,,,,,,,,,0.0,training_resp,,44.11780292633921,38.09603810522822,0.0,,left,silver,0.0,242.0,2.0,right,2023_Sep_22_1512,habits_v_MRI,5.0,40.0,1.0,5.0,30.0,15.0,5.0,15.0,30.0,30.0,60.0,RR,60.03380067093336,
18.0,0.0,resp1,stim/left_resp_img.png,"[0.5, 0]",left,stim/silver_coin.png,silver,,,,,training,,,silver,deval,,,,,0.0,0.0,0.0,0.0,0.0,0.0,0.0,0.0,,,,,,,,,0.0,training_resp,,44.43454454600578,38.41276388976257,0.0,,left,silver,0.0,242.0,2.0,right,2023_Sep_22_1512,habits_v_MRI,5.0,40.0,1.0,5.0,30.0,15.0,5.0,15.0,30.0,30.0,60.0,RR,60.03380067093336,
18.0,0.0,resp1,stim/left_resp_img.png,"[0.5, 0]",left,stim/silver_coin.png,silver,,,,,training,,,silver,deval,,,,,0.0,0.0,0.0,0.0,0.0,0.0,0.0,0.0,,,,,,,,,0.0,training_resp,,44.68448325814097,38.66269292484503,0.0,,left,silver,0.0,242.0,2.0,right,2023_Sep_22_1512,habits_v_MRI,5.0,40.0,1.0,5.0,30.0,15.0,5.0,15.0,30.0,30.0,60.0,RR,60.03380067093336,
18.0,0.0,resp1,stim/left_resp_img.png,"[0.5, 0]",left,stim/silver_coin.png,silver,,,,,training,,,silver,deval,,,,,0.0,0.0,0.0,0.0,0.0,0.0,0.0,0.0,,,,,,,,,0.0,training_resp,,44.984478038415546,38.96271526999772,0.0,5.0,left,silver,1.0,242.0,2.0,right,2023_Sep_22_1512,habits_v_MRI,5.0,40.0,1.0,5.0,30.0,15.0,5.0,15.0,30.0,30.0,60.0,RR,60.03380067093336,
18.0,0.0,resp1,stim/left_resp_img.png,"[0.5, 0]",left,stim/silver_coin.png,silver,,,,,training,,,silver,deval,,,,,0.0,0.0,0.0,0.0,0.0,0.0,0.0,0.0,,,,,,,,,0.0,training_resp,,46.08441921375925,40.06263855751604,0.0,,left,silver,0.0,242.0,2.0,right,2023_Sep_22_1512,habits_v_MRI,5.0,40.0,1.0,5.0,30.0,15.0,5.0,15.0,30.0,30.0,60.0,RR,60.03380067093336,
18.0,0.0,resp1,stim/left_resp_img.png,"[0.5, 0]",left,stim/silver_coin.png,silver,,,,,training,,,silver,deval,,,,,0.0,0.0,0.0,0.0,0.0,0.0,0.0,0.0,,,,,,,,,0.0,training_resp,,46.58445792191196,40.562632985878736,0.0,,left,silver,0.0,242.0,2.0,right,2023_Sep_22_1512,habits_v_MRI,5.0,40.0,1.0,5.0,30.0,15.0,5.0,15.0,30.0,30.0,60.0,RR,60.03380067093336,
18.0,0.0,resp1,stim/left_resp_img.png,"[0.5, 0]",left,stim/silver_coin.png,silver,,,,,training,,,silver,deval,,,,,0.0,0.0,0.0,0.0,0.0,0.0,0.0,0.0,,,,,,,,,0.0,training_resp,,46.98434050721698,40.96253492528922,0.0,,left,silver,0.0,242.0,2.0,right,2023_Sep_22_1512,habits_v_MRI,5.0,40.0,1.0,5.0,30.0,15.0,5.0,15.0,30.0,30.0,60.0,RR,60.03380067093336,
18.0,0.0,resp1,stim/left_resp_img.png,"[0.5, 0]",left,stim/silver_coin.png,silver,,,,,training,,,silver,deval,,,,,0.0,0.0,0.0,0.0,0.0,0.0,0.0,0.0,,,,,,,,,0.0,training_resp,,47.26758932779194,41.24583183779032,0.0,,left,silver,0.0,242.0,2.0,right,2023_Sep_22_1512,habits_v_MRI,5.0,40.0,1.0,5.0,30.0,15.0,5.0,15.0,30.0,30.0,60.0,RR,60.03380067093336,
18.0,0.0,resp1,stim/left_resp_img.png,"[0.5, 0]",left,stim/silver_coin.png,silver,,,,,training,,,silver,deval,,,,,0.0,0.0,0.0,0.0,0.0,0.0,0.0,0.0,,,,,,,,,0.0,training_resp,,47.5343440847937,41.51245170278708,0.0,10.0,left,silver,1.0,242.0,2.0,right,2023_Sep_22_1512,habits_v_MRI,5.0,40.0,1.0,5.0,30.0,15.0,5.0,15.0,30.0,30.0,60.0,RR,60.03380067093336,
18.0,0.0,resp1,stim/left_resp_img.png,"[0.5, 0]",left,stim/silver_coin.png,silver,,,,,training,,,silver,deval,,,,,0.0,0.0,0.0,0.0,0.0,0.0,0.0,0.0,,,,,,,,,0.0,training_resp,,48.35123027351801,42.329297423915705,0.0,,left,silver,0.0,242.0,2.0,right,2023_Sep_22_1512,habits_v_MRI,5.0,40.0,1.0,5.0,30.0,15.0,5.0,15.0,30.0,30.0,60.0,RR,60.03380067093336,
18.0,0.0,resp1,stim/left_resp_img.png,"[0.5, 0]",left,stim/silver_coin.png,silver,,,,,training,,,silver,deval,,,,,0.0,0.0,0.0,0.0,0.0,0.0,0.0,0.0,,,,,,,,,0.0,training_resp,,48.58417787440703,42.56232361405273,0.0,,left,silver,0.0,242.0,2.0,right,2023_Sep_22_1512,habits_v_MRI,5.0,40.0,1.0,5.0,30.0,15.0,5.0,15.0,30.0,30.0,60.0,RR,60.03380067093336,
18.0,0.0,resp1,stim/left_resp_img.png,"[0.5, 0]",left,stim/silver_coin.png,silver,,,,,training,,,silver,deval,,,,,0.0,0.0,0.0,0.0,0.0,0.0,0.0,0.0,,,,,,,,,0.0,training_resp,,48.8507748664415,42.82900711291586,0.0,,left,silver,0.0,242.0,2.0,right,2023_Sep_22_1512,habits_v_MRI,5.0,40.0,1.0,5.0,30.0,15.0,5.0,15.0,30.0,30.0,60.0,RR,60.03380067093336,
18.0,0.0,resp1,stim/left_resp_img.png,"[0.5, 0]",left,stim/silver_coin.png,silver,,,,,training,,,silver,deval,,,,,0.0,0.0,0.0,0.0,0.0,0.0,0.0,0.0,,,,,,,,,0.0,training_resp,,49.06750669181929,43.04571841121651,0.0,,left,silver,0.0,242.0,2.0,right,2023_Sep_22_1512,habits_v_MRI,5.0,40.0,1.0,5.0,30.0,15.0,5.0,15.0,30.0,30.0,60.0,RR,60.03380067093336,
18.0,0.0,resp1,stim/left_resp_img.png,"[0.5, 0]",left,stim/silver_coin.png,silver,,,,,training,,,silver,deval,,,,,0.0,0.0,0.0,0.0,0.0,0.0,0.0,0.0,,,,,,,,,0.0,training_resp,,49.33419810820487,43.31237111950759,0.0,,left,silver,0.0,242.0,2.0,right,2023_Sep_22_1512,habits_v_MRI,5.0,40.0,1.0,5.0,30.0,15.0,5.0,15.0,30.0,30.0,60.0,RR,60.03380067093336,
18.0,0.0,resp1,stim/left_resp_img.png,"[0.5, 0]",left,stim/silver_coin.png,silver,,,,,training,,,silver,deval,,,,,0.0,0.0,0.0,0.0,0.0,0.0,0.0,0.0,,,,,,,,,0.0,training_resp,,49.60084671108052,43.5790499264549,0.0,,left,silver,0.0,242.0,2.0,right,2023_Sep_22_1512,habits_v_MRI,5.0,40.0,1.0,5.0,30.0,15.0,5.0,15.0,30.0,30.0,60.0,RR,60.03380067093336,
18.0,0.0,resp1,stim/left_resp_img.png,"[0.5, 0]",left,stim/silver_coin.png,silver,,,,,training,,,silver,deval,,,,,0.0,0.0,0.0,0.0,0.0,0.0,0.0,0.0,,,,,,,,,0.0,training_resp,,49.867166588053806,43.845498830545694,0.0,,left,silver,0.0,242.0,2.0,right,2023_Sep_22_1512,habits_v_MRI,5.0,40.0,1.0,5.0,30.0,15.0,5.0,15.0,30.0,30.0,60.0,RR,60.03380067093336,
18.0,0.0,resp1,stim/left_resp_img.png,"[0.5, 0]",left,stim/silver_coin.png,silver,,,,,training,,,silver,deval,,,,,0.0,0.0,0.0,0.0,0.0,0.0,0.0,0.0,,,,,,,,,0.0,training_resp,,50.300662495574215,44.2789325704216,0.0,,left,silver,0.0,242.0,2.0,right,2023_Sep_22_1512,habits_v_MRI,5.0,40.0,1.0,5.0,30.0,15.0,5.0,15.0,30.0,30.0,60.0,RR,60.03380067093336,
18.0,0.0,resp1,stim/left_resp_img.png,"[0.5, 0]",left,stim/silver_coin.png,silver,,,,,training,,,silver,deval,,,,,0.0,0.0,0.0,0.0,0.0,0.0,0.0,0.0,,,,,,,,,0.0,ITI_start,25.0,50.70174327355926,44.67894447609433,,,,,,242.0,2.0,right,2023_Sep_22_1512,habits_v_MRI,5.0,40.0,1.0,5.0,30.0,15.0,5.0,15.0,30.0,30.0,60.0,RR,60.03380067093336,
18.0,1.0,resp2,stim/right_resp_img.png,"[-0.5, 0]",right,stim/gold_coin.png,silver,,,,,training,,,gold,val,,,,,0.0,0.0,0.0,0.0,0.0,1.0,1.0,1.0,,,,,,,,,0.0,training_period_start,30.0,75.72888236714061,0.0,1.0,14.0,,,,242.0,2.0,right,2023_Sep_22_1512,habits_v_MRI,5.0,40.0,1.0,5.0,30.0,15.0,5.0,15.0,30.0,30.0,60.0,RR,60.03380067093336,
18.0,1.0,resp2,stim/right_resp_img.png,"[-0.5, 0]",right,stim/gold_coin.png,silver,,,,,training,,,gold,val,,,,,0.0,0.0,0.0,0.0,0.0,1.0,1.0,1.0,,,,,,,,,0.0,training_resp,,76.76545803449699,1.048903034941759,1.0,,right,gold,0.0,242.0,2.0,right,2023_Sep_22_1512,habits_v_MRI,5.0,40.0,1.0,5.0,30.0,15.0,5.0,15.0,30.0,30.0,60.0,RR,60.03380067093336,
18.0,1.0,resp2,stim/right_resp_img.png,"[-0.5, 0]",right,stim/gold_coin.png,silver,,,,,training,,,gold,val,,,,,0.0,0.0,0.0,0.0,0.0,1.0,1.0,1.0,,,,,,,,,0.0,training_resp,,77.29885083760018,1.582227805571165,1.0,,right,gold,0.0,242.0,2.0,right,2023_Sep_22_1512,habits_v_MRI,5.0,40.0,1.0,5.0,30.0,15.0,5.0,15.0,30.0,30.0,60.0,RR,60.03380067093336,
18.0,1.0,resp2,stim/right_resp_img.png,"[-0.5, 0]",right,stim/gold_coin.png,silver,,,,,training,,,gold,val,,,,,0.0,0.0,0.0,0.0,0.0,1.0,1.0,1.0,,,,,,,,,0.0,training_resp,,77.74873582753935,2.032204873947194,1.0,,right,gold,0.0,242.0,2.0,right,2023_Sep_22_1512,habits_v_MRI,5.0,40.0,1.0,5.0,30.0,15.0,5.0,15.0,30.0,30.0,60.0,RR,60.03380067093336,
18.0,1.0,resp2,stim/right_resp_img.png,"[-0.5, 0]",right,stim/gold_coin.png,silver,,,,,training,,,gold,val,,,,,0.0,0.0,0.0,0.0,0.0,1.0,1.0,1.0,,,,,,,,,0.0,training_resp,,78.21533217441174,2.4987924235174432,1.0,,right,gold,0.0,242.0,2.0,right,2023_Sep_22_1512,habits_v_MRI,5.0,40.0,1.0,5.0,30.0,15.0,5.0,15.0,30.0,30.0,60.0,RR,60.03380067093336,
18.0,1.0,resp2,stim/right_resp_img.png,"[-0.5, 0]",right,stim/gold_coin.png,silver,,,,,training,,,gold,val,,,,,0.0,0.0,0.0,0.0,0.0,1.0,1.0,1.0,,,,,,,,,0.0,training_resp,,78.61532062062179,2.898759462957969,1.0,,right,gold,0.0,242.0,2.0,right,2023_Sep_22_1512,habits_v_MRI,5.0,40.0,1.0,5.0,30.0,15.0,5.0,15.0,30.0,30.0,60.0,RR,60.03380067093336,
18.0,1.0,resp2,stim/right_resp_img.png,"[-0.5, 0]",right,stim/gold_coin.png,silver,,,,,training,,,gold,val,,,,,0.0,0.0,0.0,0.0,0.0,1.0,1.0,1.0,,,,,,,,,0.0,training_resp,,79.0318834791251,3.315353405254428,1.0,,right,gold,0.0,242.0,2.0,right,2023_Sep_22_1512,habits_v_MRI,5.0,40.0,1.0,5.0,30.0,15.0,5.0,15.0,30.0,30.0,60.0,RR,60.03380067093336,
18.0,1.0,resp2,stim/right_resp_img.png,"[-0.5, 0]",right,stim/gold_coin.png,silver,,,,,training,,,gold,val,,,,,0.0,0.0,0.0,0.0,0.0,1.0,1.0,1.0,,,,,,,,,0.0,training_resp,,79.84860457177274,4.132058955990942,1.0,,right,gold,0.0,242.0,2.0,right,2023_Sep_22_1512,habits_v_MRI,5.0,40.0,1.0,5.0,30.0,15.0,5.0,15.0,30.0,30.0,60.0,RR,60.03380067093336,
18.0,1.0,resp2,stim/right_resp_img.png,"[-0.5, 0]",right,stim/gold_coin.png,silver,,,,,training,,,gold,val,,,,,0.0,0.0,0.0,0.0,0.0,1.0,1.0,1.0,,,,,,,,,0.0,training_resp,,80.33185010802117,4.615348185529001,1.0,,right,gold,0.0,242.0,2.0,right,2023_Sep_22_1512,habits_v_MRI,5.0,40.0,1.0,5.0,30.0,15.0,5.0,15.0,30.0,30.0,60.0,RR,60.03380067093336,
18.0,1.0,resp2,stim/right_resp_img.png,"[-0.5, 0]",right,stim/gold_coin.png,silver,,,,,training,,,gold,val,,,,,0.0,0.0,0.0,0.0,0.0,1.0,1.0,1.0,,,,,,,,,0.0,training_resp,,80.76510203696671,5.048613310442306,1.0,,right,gold,0.0,242.0,2.0,right,2023_Sep_22_1512,habits_v_MRI,5.0,40.0,1.0,5.0,30.0,15.0,5.0,15.0,30.0,30.0,60.0,RR,60.03380067093336,
18.0,1.0,resp2,stim/right_resp_img.png,"[-0.5, 0]",right,stim/gold_coin.png,silver,,,,,training,,,gold,val,,,,,0.0,0.0,0.0,0.0,0.0,1.0,1.0,1.0,,,,,,,,,0.0,training_resp,,81.1485380641534,5.431964883493492,1.0,,right,gold,0.0,242.0,2.0,right,2023_Sep_22_1512,habits_v_MRI,5.0,40.0,1.0,5.0,30.0,15.0,5.0,15.0,30.0,30.0,60.0,RR,60.03380067093336,
18.0,1.0,resp2,stim/right_resp_img.png,"[-0.5, 0]",right,stim/gold_coin.png,silver,,,,,training,,,gold,val,,,,,0.0,0.0,0.0,0.0,0.0,1.0,1.0,1.0,,,,,,,,,0.0,training_resp,,81.49846076520043,5.781933623744408,1.0,,right,gold,0.0,242.0,2.0,right,2023_Sep_22_1512,habits_v_MRI,5.0,40.0,1.0,5.0,30.0,15.0,5.0,15.0,30.0,30.0,60.0,RR,60.03380067093336,
18.0,1.0,resp2,stim/right_resp_img.png,"[-0.5, 0]",right,stim/gold_coin.png,silver,,,,,training,,,gold,val,,,,,0.0,0.0,0.0,0.0,0.0,1.0,1.0,1.0,,,,,,,,,0.0,training_resp,,81.84794184161001,6.131646069232374,1.0,,right,gold,0.0,242.0,2.0,right,2023_Sep_22_1512,habits_v_MRI,5.0,40.0,1.0,5.0,30.0,15.0,5.0,15.0,30.0,30.0,60.0,RR,60.03380067093336,
18.0,1.0,resp2,stim/right_resp_img.png,"[-0.5, 0]",right,stim/gold_coin.png,silver,,,,,training,,,gold,val,,,,,0.0,0.0,0.0,0.0,0.0,1.0,1.0,1.0,,,,,,,,,0.0,training_resp,,82.21496796607971,6.498477186833043,1.0,,right,gold,0.0,242.0,2.0,right,2023_Sep_22_1512,habits_v_MRI,5.0,40.0,1.0,5.0,30.0,15.0,5.0,15.0,30.0,30.0,60.0,RR,60.03380067093336,
18.0,1.0,resp2,stim/right_resp_img.png,"[-0.5, 0]",right,stim/gold_coin.png,silver,,,,,training,,,gold,val,,,,,0.0,0.0,0.0,0.0,0.0,1.0,1.0,1.0,,,,,,,,,0.0,training_resp,,82.56589326640824,6.848902507103048,1.0,9.0,right,gold,1.0,242.0,2.0,right,2023_Sep_22_1512,habits_v_MRI,5.0,40.0,1.0,5.0,30.0,15.0,5.0,15.0,30.0,30.0,60.0,RR,60.03380067093336,
18.0,1.0,resp2,stim/right_resp_img.png,"[-0.5, 0]",right,stim/gold_coin.png,silver,,,,,training,,,gold,val,,,,,0.0,0.0,0.0,0.0,0.0,1.0,1.0,1.0,,,,,,,,,0.0,training_resp,,83.46580165717751,7.748845500580501,1.0,,right,gold,0.0,242.0,2.0,right,2023_Sep_22_1512,habits_v_MRI,5.0,40.0,1.0,5.0,30.0,15.0,5.0,15.0,30.0,30.0,60.0,RR,60.03380067093336,
18.0,1.0,resp2,stim/right_resp_img.png,"[-0.5, 0]",right,stim/gold_coin.png,silver,,,,,training,,,gold,val,,,,,0.0,0.0,0.0,0.0,0.0,1.0,1.0,1.0,,,,,,,,,0.0,training_resp,,83.76497359634959,8.048441469785757,1.0,,right,gold,0.0,242.0,2.0,right,2023_Sep_22_1512,habits_v_MRI,5.0,40.0,1.0,5.0,30.0,15.0,5.0,15.0,30.0,30.0,60.0,RR,60.03380067093336,
18.0,1.0,resp2,stim/right_resp_img.png,"[-0.5, 0]",right,stim/gold_coin.png,silver,,,,,training,,,gold,val,,,,,0.0,0.0,0.0,0.0,0.0,1.0,1.0,1.0,,,,,,,,,0.0,training_resp,,84.13175398283056,8.415043271001196,1.0,,right,gold,0.0,242.0,2.0,right,2023_Sep_22_1512,habits_v_MRI,5.0,40.0,1.0,5.0,30.0,15.0,5.0,15.0,30.0,30.0,60.0,RR,60.03380067093336,
18.0,1.0,resp2,stim/right_resp_img.png,"[-0.5, 0]",right,stim/gold_coin.png,silver,,,,,training,,,gold,val,,,,,0.0,0.0,0.0,0.0,0.0,1.0,1.0,1.0,,,,,,,,,0.0,training_resp,,84.49810300819809,8.781607537064701,1.0,,right,gold,0.0,242.0,2.0,right,2023_Sep_22_1512,habits_v_MRI,5.0,40.0,1.0,5.0,30.0,15.0,5.0,15.0,30.0,30.0,60.0,RR,60.03380067093336,
18.0,1.0,resp2,stim/right_resp_img.png,"[-0.5, 0]",right,stim/gold_coin.png,silver,,,,,training,,,gold,val,,,,,0.0,0.0,0.0,0.0,0.0,1.0,1.0,1.0,,,,,,,,,0.0,training_resp,,84.84828757561627,9.131727884174325,1.0,,right,gold,0.0,242.0,2.0,right,2023_Sep_22_1512,habits_v_MRI,5.0,40.0,1.0,5.0,30.0,15.0,5.0,15.0,30.0,30.0,60.0,RR,60.03380067093336,
18.0,1.0,resp2,stim/right_resp_img.png,"[-0.5, 0]",right,stim/gold_coin.png,silver,,,,,training,,,gold,val,,,,,0.0,0.0,0.0,0.0,0.0,1.0,1.0,1.0,,,,,,,,,0.0,training_resp,,85.21500931339688,9.498475134110777,1.0,,right,gold,0.0,242.0,2.0,right,2023_Sep_22_1512,habits_v_MRI,5.0,40.0,1.0,5.0,30.0,15.0,5.0,15.0,30.0,30.0,60.0,RR,60.03380067093336,
18.0,1.0,resp2,stim/right_resp_img.png,"[-0.5, 0]",right,stim/gold_coin.png,silver,,,,,training,,,gold,val,,,,,0.0,0.0,0.0,0.0,0.0,1.0,1.0,1.0,,,,,,,,,0.0,training_resp,,85.5646396507218,9.848394316242777,1.0,,right,gold,0.0,242.0,2.0,right,2023_Sep_22_1512,habits_v_MRI,5.0,40.0,1.0,5.0,30.0,15.0,5.0,15.0,30.0,30.0,60.0,RR,60.03380067093336,
18.0,1.0,resp2,stim/right_resp_img.png,"[-0.5, 0]",right,stim/gold_coin.png,silver,,,,,training,,,gold,val,,,,,0.0,0.0,0.0,0.0,0.0,1.0,1.0,1.0,,,,,,,,,0.0,training_resp,,85.93133792903973,10.214903452520955,1.0,,right,gold,0.0,242.0,2.0,right,2023_Sep_22_1512,habits_v_MRI,5.0,40.0,1.0,5.0,30.0,15.0,5.0,15.0,30.0,30.0,60.0,RR,60.03380067093336,
18.0,1.0,resp2,stim/right_resp_img.png,"[-0.5, 0]",right,stim/gold_coin.png,silver,,,,,training,,,gold,val,,,,,0.0,0.0,0.0,0.0,0.0,1.0,1.0,1.0,,,,,,,,,0.0,training_resp,,86.2484572462563,10.531518977542872,1.0,11.0,right,gold,1.0,242.0,2.0,right,2023_Sep_22_1512,habits_v_MRI,5.0,40.0,1.0,5.0,30.0,15.0,5.0,15.0,30.0,30.0,60.0,RR,60.03380067093336,
18.0,1.0,resp2,stim/right_resp_img.png,"[-0.5, 0]",right,stim/gold_coin.png,silver,,,,,training,,,gold,val,,,,,0.0,0.0,0.0,0.0,0.0,1.0,1.0,1.0,,,,,,,,,0.0,training_resp,,87.38153375699767,11.664784337044694,1.0,,right,gold,0.0,242.0,2.0,right,2023_Sep_22_1512,habits_v_MRI,5.0,40.0,1.0,5.0,30.0,15.0,5.0,15.0,30.0,30.0,60.0,RR,60.03380067093336,
18.0,1.0,resp2,stim/right_resp_img.png,"[-0.5, 0]",right,stim/gold_coin.png,silver,,,,,training,,,gold,val,,,,,0.0,0.0,0.0,0.0,0.0,1.0,1.0,1.0,,,,,,,,,0.0,training_resp,,87.76475864890381,12.04805497493362,1.0,,right,gold,0.0,242.0,2.0,right,2023_Sep_22_1512,habits_v_MRI,5.0,40.0,1.0,5.0,30.0,15.0,5.0,15.0,30.0,30.0,60.0,RR,60.03380067093336,
18.0,1.0,resp2,stim/right_resp_img.png,"[-0.5, 0]",right,stim/gold_coin.png,silver,,,,,training,,,gold,val,,,,,0.0,0.0,0.0,0.0,0.0,1.0,1.0,1.0,,,,,,,,,0.0,training_resp,,88.13130590686342,12.414751493779477,1.0,,right,gold,0.0,242.0,2.0,right,2023_Sep_22_1512,habits_v_MRI,5.0,40.0,1.0,5.0,30.0,15.0,5.0,15.0,30.0,30.0,60.0,RR,60.03380067093336,
18.0,1.0,resp2,stim/right_resp_img.png,"[-0.5, 0]",right,stim/gold_coin.png,silver,,,,,training,,,gold,val,,,,,0.0,0.0,0.0,0.0,0.0,1.0,1.0,1.0,,,,,,,,,0.0,training_resp,,88.48165146491374,12.76470909078489,1.0,,right,gold,0.0,242.0,2.0,right,2023_Sep_22_1512,habits_v_MRI,5.0,40.0,1.0,5.0,30.0,15.0,5.0,15.0,30.0,30.0,60.0,RR,60.03380067093336,
18.0,1.0,resp2,stim/right_resp_img.png,"[-0.5, 0]",right,stim/gold_coin.png,silver,,,,,training,,,gold,val,,,,,0.0,0.0,0.0,0.0,0.0,1.0,1.0,1.0,,,,,,,,,0.0,training_resp,,88.83116421161685,13.114665514789522,1.0,,right,gold,0.0,242.0,2.0,right,2023_Sep_22_1512,habits_v_MRI,5.0,40.0,1.0,5.0,30.0,15.0,5.0,15.0,30.0,30.0,60.0,RR,60.03380067093336,
18.0,1.0,resp2,stim/right_resp_img.png,"[-0.5, 0]",right,stim/gold_coin.png,silver,,,,,training,,,gold,val,,,,,0.0,0.0,0.0,0.0,0.0,1.0,1.0,1.0,,,,,,,,,0.0,training_resp,,89.19847830114304,13.481489008059723,1.0,,right,gold,0.0,242.0,2.0,right,2023_Sep_22_1512,habits_v_MRI,5.0,40.0,1.0,5.0,30.0,15.0,5.0,15.0,30.0,30.0,60.0,RR,60.03380067093336,
18.0,1.0,resp2,stim/right_resp_img.png,"[-0.5, 0]",right,stim/gold_coin.png,silver,,,,,training,,,gold,val,,,,,0.0,0.0,0.0,0.0,0.0,1.0,1.0,1.0,,,,,,,,,0.0,training_resp,,89.56448569791974,13.84791867536842,1.0,,right,gold,0.0,242.0,2.0,right,2023_Sep_22_1512,habits_v_MRI,5.0,40.0,1.0,5.0,30.0,15.0,5.0,15.0,30.0,30.0,60.0,RR,60.03380067093336,
18.0,1.0,resp2,stim/right_resp_img.png,"[-0.5, 0]",right,stim/gold_coin.png,silver,,,,,training,,,gold,val,,,,,0.0,0.0,0.0,0.0,0.0,1.0,1.0,1.0,,,,,,,,,0.0,training_resp,,89.93112239512266,14.214586456364486,1.0,,right,gold,0.0,242.0,2.0,right,2023_Sep_22_1512,habits_v_MRI,5.0,40.0,1.0,5.0,30.0,15.0,5.0,15.0,30.0,30.0,60.0,RR,60.03380067093336,
18.0,1.0,resp2,stim/right_resp_img.png,"[-0.5, 0]",right,stim/gold_coin.png,silver,,,,,training,,,gold,val,,,,,0.0,0.0,0.0,0.0,0.0,1.0,1.0,1.0,,,,,,,,,0.0,training_resp,,90.28145270451203,14.564685103454394,1.0,,right,gold,0.0,242.0,2.0,right,2023_Sep_22_1512,habits_v_MRI,5.0,40.0,1.0,5.0,30.0,15.0,5.0,15.0,30.0,30.0,60.0,RR,60.03380067093336,
18.0,1.0,resp2,stim/right_resp_img.png,"[-0.5, 0]",right,stim/gold_coin.png,silver,,,,,training,,,gold,val,,,,,0.0,0.0,0.0,0.0,0.0,1.0,1.0,1.0,,,,,,,,,0.0,training_resp,,90.66439021786208,14.947819969645934,1.0,,right,gold,0.0,242.0,2.0,right,2023_Sep_22_1512,habits_v_MRI,5.0,40.0,1.0,5.0,30.0,15.0,5.0,15.0,30.0,30.0,60.0,RR,60.03380067093336,
18.0,1.0,resp2,stim/right_resp_img.png,"[-0.5, 0]",right,stim/gold_coin.png,silver,,,,,training,,,gold,val,,,,,0.0,0.0,0.0,0.0,0.0,1.0,1.0,1.0,,,,,,,,,0.0,training_resp,,91.03156941541238,15.314977760397596,1.0,9.0,right,gold,1.0,242.0,2.0,right,2023_Sep_22_1512,habits_v_MRI,5.0,40.0,1.0,5.0,30.0,15.0,5.0,15.0,30.0,30.0,60.0,RR,60.03380067093336,
18.0,1.0,resp2,stim/right_resp_img.png,"[-0.5, 0]",right,stim/gold_coin.png,silver,,,,,training,,,gold,val,,,,,0.0,0.0,0.0,0.0,0.0,1.0,1.0,1.0,,,,,,,,,0.0,training_resp,,92.01445045004948,16.297832696407568,1.0,,right,gold,0.0,242.0,2.0,right,2023_Sep_22_1512,habits_v_MRI,5.0,40.0,1.0,5.0,30.0,15.0,5.0,15.0,30.0,30.0,60.0,RR,60.03380067093336,
18.0,1.0,resp2,stim/right_resp_img.png,"[-0.5, 0]",right,stim/gold_coin.png,silver,,,,,training,,,gold,val,,,,,0.0,0.0,0.0,0.0,0.0,1.0,1.0,1.0,,,,,,,,,0.0,training_resp,,92.34764478600118,16.631113245908637,1.0,,right,gold,0.0,242.0,2.0,right,2023_Sep_22_1512,habits_v_MRI,5.0,40.0,1.0,5.0,30.0,15.0,5.0,15.0,30.0,30.0,60.0,RR,60.03380067093336,
18.0,1.0,resp2,stim/right_resp_img.png,"[-0.5, 0]",right,stim/gold_coin.png,silver,,,,,training,,,gold,val,,,,,0.0,0.0,0.0,0.0,0.0,1.0,1.0,1.0,,,,,,,,,0.0,training_resp,,92.69754930594354,16.98102011179435,1.0,,right,gold,0.0,242.0,2.0,right,2023_Sep_22_1512,habits_v_MRI,5.0,40.0,1.0,5.0,30.0,15.0,5.0,15.0,30.0,30.0,60.0,RR,60.03380067093336,
18.0,1.0,resp2,stim/right_resp_img.png,"[-0.5, 0]",right,stim/gold_coin.png,silver,,,,,training,,,gold,val,,,,,0.0,0.0,0.0,0.0,0.0,1.0,1.0,1.0,,,,,,,,,0.0,training_resp,,93.03095712311917,17.31437455865671,1.0,,right,gold,0.0,242.0,2.0,right,2023_Sep_22_1512,habits_v_MRI,5.0,40.0,1.0,5.0,30.0,15.0,5.0,15.0,30.0,30.0,60.0,RR,60.03380067093336,
18.0,1.0,resp2,stim/right_resp_img.png,"[-0.5, 0]",right,stim/gold_coin.png,silver,,,,,training,,,gold,val,,,,,0.0,0.0,0.0,0.0,0.0,1.0,1.0,1.0,,,,,,,,,0.0,training_resp,,93.34752954132271,17.630992429621983,1.0,,right,gold,0.0,242.0,2.0,right,2023_Sep_22_1512,habits_v_MRI,5.0,40.0,1.0,5.0,30.0,15.0,5.0,15.0,30.0,30.0,60.0,RR,60.03380067093336,
18.0,1.0,resp2,stim/right_resp_img.png,"[-0.5, 0]",right,stim/gold_coin.png,silver,,,,,training,,,gold,val,,,,,0.0,0.0,0.0,0.0,0.0,1.0,1.0,1.0,,,,,,,,,0.0,training_resp,,93.68087812332668,17.964372095419094,1.0,,right,gold,0.0,242.0,2.0,right,2023_Sep_22_1512,habits_v_MRI,5.0,40.0,1.0,5.0,30.0,15.0,5.0,15.0,30.0,30.0,60.0,RR,60.03380067093336,
18.0,1.0,resp2,stim/right_resp_img.png,"[-0.5, 0]",right,stim/gold_coin.png,silver,,,,,training,,,gold,val,,,,,0.0,0.0,0.0,0.0,0.0,1.0,1.0,1.0,,,,,,,,,0.0,training_resp,,94.01420940394746,18.297708947677165,1.0,,right,gold,0.0,242.0,2.0,right,2023_Sep_22_1512,habits_v_MRI,5.0,40.0,1.0,5.0,30.0,15.0,5.0,15.0,30.0,30.0,60.0,RR,60.03380067093336,
18.0,1.0,resp2,stim/right_resp_img.png,"[-0.5, 0]",right,stim/gold_coin.png,silver,,,,,training,,,gold,val,,,,,0.0,0.0,0.0,0.0,0.0,1.0,1.0,1.0,,,,,,,,,0.0,training_resp,,94.36421216043529,18.64764660410583,1.0,,right,gold,0.0,242.0,2.0,right,2023_Sep_22_1512,habits_v_MRI,5.0,40.0,1.0,5.0,30.0,15.0,5.0,15.0,30.0,30.0,60.0,RR,60.03380067093336,
18.0,1.0,resp2,stim/right_resp_img.png,"[-0.5, 0]",right,stim/gold_coin.png,silver,,,,,training,,,gold,val,,,,,0.0,0.0,0.0,0.0,0.0,1.0,1.0,1.0,,,,,,,,,0.0,training_resp,,94.73085560221809,19.014254270208767,1.0,16.0,right,gold,1.0,242.0,2.0,right,2023_Sep_22_1512,habits_v_MRI,5.0,40.0,1.0,5.0,30.0,15.0,5.0,15.0,30.0,30.0,60.0,RR,60.03380067093336,
18.0,1.0,resp2,stim/right_resp_img.png,"[-0.5, 0]",right,stim/gold_coin.png,silver,,,,,training,,,gold,val,,,,,0.0,0.0,0.0,0.0,0.0,1.0,1.0,1.0,,,,,,,,,0.0,training_resp,,95.61434646593987,19.897609068953894,1.0,,right,gold,0.0,242.0,2.0,right,2023_Sep_22_1512,habits_v_MRI,5.0,40.0,1.0,5.0,30.0,15.0,5.0,15.0,30.0,30.0,60.0,RR,60.03380067093336,
18.0,1.0,resp2,stim/right_resp_img.png,"[-0.5, 0]",right,stim/gold_coin.png,silver,,,,,training,,,gold,val,,,,,0.0,0.0,0.0,0.0,0.0,1.0,1.0,1.0,,,,,,,,,0.0,training_resp,,95.96399058570388,20.247478986158967,1.0,,right,gold,0.0,242.0,2.0,right,2023_Sep_22_1512,habits_v_MRI,5.0,40.0,1.0,5.0,30.0,15.0,5.0,15.0,30.0,30.0,60.0,RR,60.03380067093336,
18.0,1.0,resp2,stim/right_resp_img.png,"[-0.5, 0]",right,stim/gold_coin.png,silver,,,,,training,,,gold,val,,,,,0.0,0.0,0.0,0.0,0.0,1.0,1.0,1.0,,,,,,,,,0.0,training_resp,,96.29745617182924,20.580819943832463,1.0,,right,gold,0.0,242.0,2.0,right,2023_Sep_22_1512,habits_v_MRI,5.0,40.0,1.0,5.0,30.0,15.0,5.0,15.0,30.0,30.0,60.0,RR,60.03380067093336,
18.0,1.0,resp2,stim/right_resp_img.png,"[-0.5, 0]",right,stim/gold_coin.png,silver,,,,,training,,,gold,val,,,,,0.0,0.0,0.0,0.0,0.0,1.0,1.0,1.0,,,,,,,,,0.0,training_resp,,96.88126280007418,21.164533613889944,1.0,,right,gold,0.0,242.0,2.0,right,2023_Sep_22_1512,habits_v_MRI,5.0,40.0,1.0,5.0,30.0,15.0,5.0,15.0,30.0,30.0,60.0,RR,60.03380067093336,
18.0,1.0,resp2,stim/right_resp_img.png,"[-0.5, 0]",right,stim/gold_coin.png,silver,,,,,training,,,gold,val,,,,,0.0,0.0,0.0,0.0,0.0,1.0,1.0,1.0,,,,,,,,,0.0,training_resp,,97.313975161087,21.59742338722572,1.0,,right,gold,0.0,242.0,2.0,right,2023_Sep_22_1512,habits_v_MRI,5.0,40.0,1.0,5.0,30.0,15.0,5.0,15.0,30.0,30.0,60.0,RR,60.03380067093336,
18.0,1.0,resp2,stim/right_resp_img.png,"[-0.5, 0]",right,stim/gold_coin.png,silver,,,,,training,,,gold,val,,,,,0.0,0.0,0.0,0.0,0.0,1.0,1.0,1.0,,,,,,,,,0.0,training_resp,,97.64731318631677,21.930738832685165,1.0,,right,gold,0.0,242.0,2.0,right,2023_Sep_22_1512,habits_v_MRI,5.0,40.0,1.0,5.0,30.0,15.0,5.0,15.0,30.0,30.0,60.0,RR,60.03380067093336,
18.0,1.0,resp2,stim/right_resp_img.png,"[-0.5, 0]",right,stim/gold_coin.png,silver,,,,,training,,,gold,val,,,,,0.0,0.0,0.0,0.0,0.0,1.0,1.0,1.0,,,,,,,,,0.0,training_resp,,97.99727811440243,22.280715783766937,1.0,,right,gold,0.0,242.0,2.0,right,2023_Sep_22_1512,habits_v_MRI,5.0,40.0,1.0,5.0,30.0,15.0,5.0,15.0,30.0,30.0,60.0,RR,60.03380067093336,
18.0,1.0,resp2,stim/right_resp_img.png,"[-0.5, 0]",right,stim/gold_coin.png,silver,,,,,training,,,gold,val,,,,,0.0,0.0,0.0,0.0,0.0,1.0,1.0,1.0,,,,,,,,,0.0,training_resp,,98.33051497064298,22.61402037923108,1.0,,right,gold,0.0,242.0,2.0,right,2023_Sep_22_1512,habits_v_MRI,5.0,40.0,1.0,5.0,30.0,15.0,5.0,15.0,30.0,30.0,60.0,RR,60.03380067093336,
18.0,1.0,resp2,stim/right_resp_img.png,"[-0.5, 0]",right,stim/gold_coin.png,silver,,,,,training,,,gold,val,,,,,0.0,0.0,0.0,0.0,0.0,1.0,1.0,1.0,,,,,,,,,0.0,training_resp,,98.68052388526849,22.96400847355835,1.0,,right,gold,0.0,242.0,2.0,right,2023_Sep_22_1512,habits_v_MRI,5.0,40.0,1.0,5.0,30.0,15.0,5.0,15.0,30.0,30.0,60.0,RR,60.03380067093336,
18.0,1.0,resp2,stim/right_resp_img.png,"[-0.5, 0]",right,stim/gold_coin.png,silver,,,,,training,,,gold,val,,,,,0.0,0.0,0.0,0.0,0.0,1.0,1.0,1.0,,,,,,,,,0.0,training_resp,,99.06373499473555,23.34725242629065,1.0,,right,gold,0.0,242.0,2.0,right,2023_Sep_22_1512,habits_v_MRI,5.0,40.0,1.0,5.0,30.0,15.0,5.0,15.0,30.0,30.0,60.0,RR,60.03380067093336,
18.0,1.0,resp2,stim/right_resp_img.png,"[-0.5, 0]",right,stim/gold_coin.png,silver,,,,,training,,,gold,val,,,,,0.0,0.0,0.0,0.0,0.0,1.0,1.0,1.0,,,,,,,,,0.0,training_resp,,99.39732638228452,23.68064235561178,1.0,,right,gold,0.0,242.0,2.0,right,2023_Sep_22_1512,habits_v_MRI,5.0,40.0,1.0,5.0,30.0,15.0,5.0,15.0,30.0,30.0,60.0,RR,60.03380067093336,
18.0,1.0,resp2,stim/right_resp_img.png,"[-0.5, 0]",right,stim/gold_coin.png,silver,,,,,training,,,gold,val,,,,,0.0,0.0,0.0,0.0,0.0,1.0,1.0,1.0,,,,,,,,,0.0,training_resp,,99.76374989148462,24.047203689231537,1.0,,right,gold,0.0,242.0,2.0,right,2023_Sep_22_1512,habits_v_MRI,5.0,40.0,1.0,5.0,30.0,15.0,5.0,15.0,30.0,30.0,60.0,RR,60.03380067093336,
18.0,1.0,resp2,stim/right_resp_img.png,"[-0.5, 0]",right,stim/gold_coin.png,silver,,,,,training,,,gold,val,,,,,0.0,0.0,0.0,0.0,0.0,1.0,1.0,1.0,,,,,,,,,0.0,training_resp,,100.13048599820468,24.41391956215375,1.0,,right,gold,0.0,242.0,2.0,right,2023_Sep_22_1512,habits_v_MRI,5.0,40.0,1.0,5.0,30.0,15.0,5.0,15.0,30.0,30.0,60.0,RR,60.03380067093336,
18.0,1.0,resp2,stim/right_resp_img.png,"[-0.5, 0]",right,stim/gold_coin.png,silver,,,,,training,,,gold,val,,,,,0.0,0.0,0.0,0.0,0.0,1.0,1.0,1.0,,,,,,,,,0.0,training_resp,,100.56369482036098,24.847196123562757,1.0,,right,gold,0.0,242.0,2.0,right,2023_Sep_22_1512,habits_v_MRI,5.0,40.0,1.0,5.0,30.0,15.0,5.0,15.0,30.0,30.0,60.0,RR,60.03380067093336,
18.0,1.0,resp2,stim/right_resp_img.png,"[-0.5, 0]",right,stim/gold_coin.png,silver,,,,,training,,,gold,val,,,,,0.0,0.0,0.0,0.0,0.0,1.0,1.0,1.0,,,,,,,,,0.0,training_resp,,100.94706604076782,25.230510454712203,1.0,,right,gold,0.0,242.0,2.0,right,2023_Sep_22_1512,habits_v_MRI,5.0,40.0,1.0,5.0,30.0,15.0,5.0,15.0,30.0,30.0,60.0,RR,60.03380067093336,
18.0,1.0,resp2,stim/right_resp_img.png,"[-0.5, 0]",right,stim/gold_coin.png,silver,,,,,training,,,gold,val,,,,,0.0,0.0,0.0,0.0,0.0,1.0,1.0,1.0,,,,,,,,,0.0,training_resp,,101.2800301806128,25.56357400407433,1.0,10.0,right,gold,1.0,242.0,2.0,right,2023_Sep_22_1512,habits_v_MRI,5.0,40.0,1.0,5.0,30.0,15.0,5.0,15.0,30.0,30.0,60.0,RR,60.03380067093336,
18.0,1.0,resp2,stim/right_resp_img.png,"[-0.5, 0]",right,stim/gold_coin.png,silver,,,,,training,,,gold,val,,,,,0.0,0.0,0.0,0.0,0.0,1.0,1.0,1.0,,,,,,,,,0.0,training_resp,,102.280504061986,26.563778394745896,1.0,,right,gold,0.0,242.0,2.0,right,2023_Sep_22_1512,habits_v_MRI,5.0,40.0,1.0,5.0,30.0,15.0,5.0,15.0,30.0,30.0,60.0,RR,60.03380067093336,
18.0,1.0,resp2,stim/right_resp_img.png,"[-0.5, 0]",right,stim/gold_coin.png,silver,,,,,training,,,gold,val,,,,,0.0,0.0,0.0,0.0,0.0,1.0,1.0,1.0,,,,,,,,,0.0,training_resp,,102.6136699533381,26.89703665775596,1.0,,right,gold,0.0,242.0,2.0,right,2023_Sep_22_1512,habits_v_MRI,5.0,40.0,1.0,5.0,30.0,15.0,5.0,15.0,30.0,30.0,60.0,RR,60.03380067093336,
18.0,1.0,resp2,stim/right_resp_img.png,"[-0.5, 0]",right,stim/gold_coin.png,silver,,,,,training,,,gold,val,,,,,0.0,0.0,0.0,0.0,0.0,1.0,1.0,1.0,,,,,,,,,0.0,training_resp,,102.92974503067671,27.21347594348481,1.0,,right,gold,0.0,242.0,2.0,right,2023_Sep_22_1512,habits_v_MRI,5.0,40.0,1.0,5.0,30.0,15.0,5.0,15.0,30.0,30.0,60.0,RR,60.03380067093336,
18.0,1.0,resp2,stim/right_resp_img.png,"[-0.5, 0]",right,stim/gold_coin.png,silver,,,,,training,,,gold,val,,,,,0.0,0.0,0.0,0.0,0.0,1.0,1.0,1.0,,,,,,,,,0.0,training_resp,,103.23018583422528,27.51366455765674,1.0,,right,gold,0.0,242.0,2.0,right,2023_Sep_22_1512,habits_v_MRI,5.0,40.0,1.0,5.0,30.0,15.0,5.0,15.0,30.0,30.0,60.0,RR,60.03380067093336,
18.0,1.0,resp2,stim/right_resp_img.png,"[-0.5, 0]",right,stim/gold_coin.png,silver,,,,,training,,,gold,val,,,,,0.0,0.0,0.0,0.0,0.0,1.0,1.0,1.0,,,,,,,,,0.0,training_resp,,103.56350597160052,27.84698029639549,1.0,,right,gold,0.0,242.0,2.0,right,2023_Sep_22_1512,habits_v_MRI,5.0,40.0,1.0,5.0,30.0,15.0,5.0,15.0,30.0,30.0,60.0,RR,60.03380067093336,
18.0,1.0,resp2,stim/right_resp_img.png,"[-0.5, 0]",right,stim/gold_coin.png,silver,,,,,training,,,gold,val,,,,,0.0,0.0,0.0,0.0,0.0,1.0,1.0,1.0,,,,,,,,,0.0,training_resp,,103.89680089004104,28.180300726991845,1.0,,right,gold,0.0,242.0,2.0,right,2023_Sep_22_1512,habits_v_MRI,5.0,40.0,1.0,5.0,30.0,15.0,5.0,15.0,30.0,30.0,60.0,RR,60.03380067093336,
18.0,1.0,resp2,stim/right_resp_img.png,"[-0.5, 0]",right,stim/gold_coin.png,silver,,,,,training,,,gold,val,,,,,0.0,0.0,0.0,0.0,0.0,1.0,1.0,1.0,,,,,,,,,0.0,training_resp,,104.24677021679236,28.530244541558204,1.0,,right,gold,0.0,242.0,2.0,right,2023_Sep_22_1512,habits_v_MRI,5.0,40.0,1.0,5.0,30.0,15.0,5.0,15.0,30.0,30.0,60.0,RR,60.03380067093336,
18.0,1.0,resp2,stim/right_resp_img.png,"[-0.5, 0]",right,stim/gold_coin.png,silver,,,,,training,,,gold,val,,,,,0.0,0.0,0.0,0.0,0.0,1.0,1.0,1.0,,,,,,,,,0.0,training_resp,,104.59672869351924,28.880214161530603,1.0,,right,gold,0.0,242.0,2.0,right,2023_Sep_22_1512,habits_v_MRI,5.0,40.0,1.0,5.0,30.0,15.0,5.0,15.0,30.0,30.0,60.0,RR,60.03380067093336,
18.0,1.0,resp2,stim/right_resp_img.png,"[-0.5, 0]",right,stim/gold_coin.png,silver,,,,,training,,,gold,val,,,,,0.0,0.0,0.0,0.0,0.0,1.0,1.0,1.0,,,,,,,,,0.0,training_resp,,104.93000308491172,29.213503215112723,1.0,,right,gold,0.0,242.0,2.0,right,2023_Sep_22_1512,habits_v_MRI,5.0,40.0,1.0,5.0,30.0,15.0,5.0,15.0,30.0,30.0,60.0,RR,60.03380067093336,
18.0,1.0,resp2,stim/right_resp_img.png,"[-0.5, 0]",right,stim/gold_coin.png,silver,,,,,training,,,gold,val,,,,,0.0,0.0,0.0,0.0,0.0,1.0,1.0,1.0,,,,,,,,,0.0,training_resp,,105.28040611869072,29.563478406722425,1.0,7.0,right,gold,1.0,242.0,2.0,right,2023_Sep_22_1512,habits_v_MRI,5.0,40.0,1.0,5.0,30.0,15.0,5.0,15.0,30.0,30.0,60.0,RR,60.03380067093336,
18.0,1.0,resp2,stim/right_resp_img.png,"[-0.5, 0]",right,stim/gold_coin.png,silver,,,,,training,,,gold,val,,,,,0.0,0.0,0.0,0.0,0.0,1.0,1.0,1.0,,,,,,,,,0.0,ITI_start,18.33333333333333,105.71419321690335,29.99681889518979,,,,,,242.0,2.0,right,2023_Sep_22_1512,habits_v_MRI,5.0,40.0,1.0,5.0,30.0,15.0,5.0,15.0,30.0,30.0,60.0,RR,60.03380067093336,
18.0,0.0,resp1,stim/left_resp_img.png,"[0.5, 0]",left,stim/silver_coin.png,silver,,,,,training,,,silver,deval,,,,,0.0,0.0,0.0,0.0,1.0,0.0,2.0,0.0,,,,,,,,,0.0,training_period_start,60.0,124.07714941573796,0.0,2.0,18.0,,,,242.0,2.0,right,2023_Sep_22_1512,habits_v_MRI,5.0,40.0,1.0,5.0,30.0,15.0,5.0,15.0,30.0,30.0,60.0,RR,60.03380067093336,
18.0,0.0,resp1,stim/left_resp_img.png,"[0.5, 0]",left,stim/silver_coin.png,silver,,,,,training,,,silver,deval,,,,,0.0,0.0,0.0,0.0,1.0,0.0,2.0,0.0,,,,,,,,,0.0,training_resp,,124.92869433943996,0.8653173949569464,2.0,,left,silver,0.0,242.0,2.0,right,2023_Sep_22_1512,habits_v_MRI,5.0,40.0,1.0,5.0,30.0,15.0,5.0,15.0,30.0,30.0,60.0,RR,60.03380067093336,
18.0,0.0,resp1,stim/left_resp_img.png,"[0.5, 0]",left,stim/silver_coin.png,silver,,,,,training,,,silver,deval,,,,,0.0,0.0,0.0,0.0,1.0,0.0,2.0,0.0,,,,,,,,,0.0,training_resp,,125.37884471469442,1.315344314702088,2.0,,left,silver,0.0,242.0,2.0,right,2023_Sep_22_1512,habits_v_MRI,5.0,40.0,1.0,5.0,30.0,15.0,5.0,15.0,30.0,30.0,60.0,RR,60.03380067093336,
18.0,0.0,resp1,stim/left_resp_img.png,"[0.5, 0]",left,stim/silver_coin.png,silver,,,,,training,,,silver,deval,,,,,0.0,0.0,0.0,0.0,1.0,0.0,2.0,0.0,,,,,,,,,0.0,training_resp,,125.87881011195714,1.8152639660111165,2.0,,left,silver,0.0,242.0,2.0,right,2023_Sep_22_1512,habits_v_MRI,5.0,40.0,1.0,5.0,30.0,15.0,5.0,15.0,30.0,30.0,60.0,RR,60.03380067093336,
18.0,0.0,resp1,stim/left_resp_img.png,"[0.5, 0]",left,stim/silver_coin.png,silver,,,,,training,,,silver,deval,,,,,0.0,0.0,0.0,0.0,1.0,0.0,2.0,0.0,,,,,,,,,0.0,training_resp,,126.71202614792855,2.648511965497164,2.0,,left,silver,0.0,242.0,2.0,right,2023_Sep_22_1512,habits_v_MRI,5.0,40.0,1.0,5.0,30.0,15.0,5.0,15.0,30.0,30.0,60.0,RR,60.03380067093336,
18.0,0.0,resp1,stim/left_resp_img.png,"[0.5, 0]",left,stim/silver_coin.png,silver,,,,,training,,,silver,deval,,,,,0.0,0.0,0.0,0.0,1.0,0.0,2.0,0.0,,,,,,,,,0.0,training_resp,,127.2284826763498,3.1651371088810265,2.0,,left,silver,0.0,242.0,2.0,right,2023_Sep_22_1512,habits_v_MRI,5.0,40.0,1.0,5.0,30.0,15.0,5.0,15.0,30.0,30.0,60.0,RR,60.03380067093336,
18.0,0.0,resp1,stim/left_resp_img.png,"[0.5, 0]",left,stim/silver_coin.png,silver,,,,,training,,,silver,deval,,,,,0.0,0.0,0.0,0.0,1.0,0.0,2.0,0.0,,,,,,,,,0.0,training_resp,,127.6786864218884,3.6151153502287343,2.0,,left,silver,0.0,242.0,2.0,right,2023_Sep_22_1512,habits_v_MRI,5.0,40.0,1.0,5.0,30.0,15.0,5.0,15.0,30.0,30.0,60.0,RR,60.03380067093336,
18.0,0.0,resp1,stim/left_resp_img.png,"[0.5, 0]",left,stim/silver_coin.png,silver,,,,,training,,,silver,deval,,,,,0.0,0.0,0.0,0.0,1.0,0.0,2.0,0.0,,,,,,,,,0.0,training_resp,,128.17841605143622,4.115118282672484,2.0,,left,silver,0.0,242.0,2.0,right,2023_Sep_22_1512,habits_v_MRI,5.0,40.0,1.0,5.0,30.0,15.0,5.0,15.0,30.0,30.0,60.0,RR,60.03380067093336,
18.0,0.0,resp1,stim/left_resp_img.png,"[0.5, 0]",left,stim/silver_coin.png,silver,,,,,training,,,silver,deval,,,,,0.0,0.0,0.0,0.0,1.0,0.0,2.0,0.0,,,,,,,,,0.0,training_resp,,128.62834796030074,4.565028784767492,2.0,,left,silver,0.0,242.0,2.0,right,2023_Sep_22_1512,habits_v_MRI,5.0,40.0,1.0,5.0,30.0,15.0,5.0,15.0,30.0,30.0,60.0,RR,60.03380067093336,
18.0,0.0,resp1,stim/left_resp_img.png,"[0.5, 0]",left,stim/silver_coin.png,silver,,,,,training,,,silver,deval,,,,,0.0,0.0,0.0,0.0,1.0,0.0,2.0,0.0,,,,,,,,,0.0,training_resp,,129.07846783823334,5.015057170734508,2.0,,left,silver,0.0,242.0,2.0,right,2023_Sep_22_1512,habits_v_MRI,5.0,40.0,1.0,5.0,30.0,15.0,5.0,15.0,30.0,30.0,60.0,RR,60.03380067093336,
18.0,0.0,resp1,stim/left_resp_img.png,"[0.5, 0]",left,stim/silver_coin.png,silver,,,,,training,,,silver,deval,,,,,0.0,0.0,0.0,0.0,1.0,0.0,2.0,0.0,,,,,,,,,0.0,training_resp,,129.51176697938354,5.448345461860299,2.0,,left,silver,0.0,242.0,2.0,right,2023_Sep_22_1512,habits_v_MRI,5.0,40.0,1.0,5.0,30.0,15.0,5.0,15.0,30.0,30.0,60.0,RR,60.03380067093336,
18.0,0.0,resp1,stim/left_resp_img.png,"[0.5, 0]",left,stim/silver_coin.png,silver,,,,,training,,,silver,deval,,,,,0.0,0.0,0.0,0.0,1.0,0.0,2.0,0.0,,,,,,,,,0.0,training_resp,,129.91166627957136,5.848305463470751,2.0,,left,silver,0.0,242.0,2.0,right,2023_Sep_22_1512,habits_v_MRI,5.0,40.0,1.0,5.0,30.0,15.0,5.0,15.0,30.0,30.0,60.0,RR,60.03380067093336,
18.0,0.0,resp1,stim/left_resp_img.png,"[0.5, 0]",left,stim/silver_coin.png,silver,,,,,training,,,silver,deval,,,,,0.0,0.0,0.0,0.0,1.0,0.0,2.0,0.0,,,,,,,,,0.0,training_resp,,130.31156939195353,6.248267810995458,2.0,,left,silver,0.0,242.0,2.0,right,2023_Sep_22_1512,habits_v_MRI,5.0,40.0,1.0,5.0,30.0,15.0,5.0,15.0,30.0,30.0,60.0,RR,60.03380067093336,
18.0,0.0,resp1,stim/left_resp_img.png,"[0.5, 0]",left,stim/silver_coin.png,silver,,,,,training,,,silver,deval,,,,,0.0,0.0,0.0,0.0,1.0,0.0,2.0,0.0,,,,,,,,,0.0,training_resp,,130.64499128478928,6.581703486299375,2.0,,left,silver,0.0,242.0,2.0,right,2023_Sep_22_1512,habits_v_MRI,5.0,40.0,1.0,5.0,30.0,15.0,5.0,15.0,30.0,30.0,60.0,RR,60.03380067093336,
18.0,0.0,resp1,stim/left_resp_img.png,"[0.5, 0]",left,stim/silver_coin.png,silver,,,,,training,,,silver,deval,,,,,0.0,0.0,0.0,0.0,1.0,0.0,2.0,0.0,,,,,,,,,0.0,training_resp,,131.01158692789613,6.948222886101576,2.0,,left,silver,0.0,242.0,2.0,right,2023_Sep_22_1512,habits_v_MRI,5.0,40.0,1.0,5.0,30.0,15.0,5.0,15.0,30.0,30.0,60.0,RR,60.03380067093336,
18.0,0.0,resp1,stim/left_resp_img.png,"[0.5, 0]",left,stim/silver_coin.png,silver,,,,,training,,,silver,deval,,,,,0.0,0.0,0.0,0.0,1.0,0.0,2.0,0.0,,,,,,,,,0.0,training_resp,,131.361552149232,7.298183415550739,2.0,,left,silver,0.0,242.0,2.0,right,2023_Sep_22_1512,habits_v_MRI,5.0,40.0,1.0,5.0,30.0,15.0,5.0,15.0,30.0,30.0,60.0,RR,60.03380067093336,
18.0,0.0,resp1,stim/left_resp_img.png,"[0.5, 0]",left,stim/silver_coin.png,silver,,,,,training,,,silver,deval,,,,,0.0,0.0,0.0,0.0,1.0,0.0,2.0,0.0,,,,,,,,,0.0,training_resp,,131.6949497028836,7.631619090854656,2.0,,left,silver,0.0,242.0,2.0,right,2023_Sep_22_1512,habits_v_MRI,5.0,40.0,1.0,5.0,30.0,15.0,5.0,15.0,30.0,30.0,60.0,RR,60.03380067093336,
18.0,0.0,resp1,stim/left_resp_img.png,"[0.5, 0]",left,stim/silver_coin.png,silver,,,,,training,,,silver,deval,,,,,0.0,0.0,0.0,0.0,1.0,0.0,2.0,0.0,,,,,,,,,0.0,training_resp,,132.07822063399362,8.014762167818844,2.0,,left,silver,0.0,242.0,2.0,right,2023_Sep_22_1512,habits_v_MRI,5.0,40.0,1.0,5.0,30.0,15.0,5.0,15.0,30.0,30.0,60.0,RR,60.03380067093336,
18.0,0.0,resp1,stim/left_resp_img.png,"[0.5, 0]",left,stim/silver_coin.png,silver,,,,,training,,,silver,deval,,,,,0.0,0.0,0.0,0.0,1.0,0.0,2.0,0.0,,,,,,,,,0.0,training_resp,,132.42811723638442,8.364810377039248,2.0,16.0,left,silver,1.0,242.0,2.0,right,2023_Sep_22_1512,habits_v_MRI,5.0,40.0,1.0,5.0,30.0,15.0,5.0,15.0,30.0,30.0,60.0,RR,60.03380067093336,
18.0,0.0,resp1,stim/left_resp_img.png,"[0.5, 0]",left,stim/silver_coin.png,silver,,,,,training,,,silver,deval,,,,,0.0,0.0,0.0,0.0,1.0,0.0,2.0,0.0,,,,,,,,,0.0,training_resp,,133.29543924346217,9.231871397496434,2.0,,left,silver,0.0,242.0,2.0,right,2023_Sep_22_1512,habits_v_MRI,5.0,40.0,1.0,5.0,30.0,15.0,5.0,15.0,30.0,30.0,60.0,RR,60.03380067093336,
18.0,0.0,resp1,stim/left_resp_img.png,"[0.5, 0]",left,stim/silver_coin.png,silver,,,,,training,,,silver,deval,,,,,0.0,0.0,0.0,0.0,1.0,0.0,2.0,0.0,,,,,,,,,0.0,training_resp,,133.6117785331735,9.548274321015924,2.0,,left,silver,0.0,242.0,2.0,right,2023_Sep_22_1512,habits_v_MRI,5.0,40.0,1.0,5.0,30.0,15.0,5.0,15.0,30.0,30.0,60.0,RR,60.03380067093336,
18.0,0.0,resp1,stim/left_resp_img.png,"[0.5, 0]",left,stim/silver_coin.png,silver,,,,,training,,,silver,deval,,,,,0.0,0.0,0.0,0.0,1.0,0.0,2.0,0.0,,,,,,,,,0.0,training_resp,,133.9280233984755,9.86470217021997,2.0,,left,silver,0.0,242.0,2.0,right,2023_Sep_22_1512,habits_v_MRI,5.0,40.0,1.0,5.0,30.0,15.0,5.0,15.0,30.0,30.0,60.0,RR,60.03380067093336,
18.0,0.0,resp1,stim/left_resp_img.png,"[0.5, 0]",left,stim/silver_coin.png,silver,,,,,training,,,silver,deval,,,,,0.0,0.0,0.0,0.0,1.0,0.0,2.0,0.0,,,,,,,,,0.0,training_resp,,134.29481903358828,10.231362326885574,2.0,,left,silver,0.0,242.0,2.0,right,2023_Sep_22_1512,habits_v_MRI,5.0,40.0,1.0,5.0,30.0,15.0,5.0,15.0,30.0,30.0,60.0,RR,60.03380067093336,
18.0,0.0,resp1,stim/left_resp_img.png,"[0.5, 0]",left,stim/silver_coin.png,silver,,,,,training,,,silver,deval,,,,,0.0,0.0,0.0,0.0,1.0,0.0,2.0,0.0,,,,,,,,,0.0,training_resp,,135.04529965959955,10.981798673135929,2.0,,left,silver,0.0,242.0,2.0,right,2023_Sep_22_1512,habits_v_MRI,5.0,40.0,1.0,5.0,30.0,15.0,5.0,15.0,30.0,30.0,60.0,RR,60.03380067093336,
18.0,0.0,resp1,stim/left_resp_img.png,"[0.5, 0]",left,stim/silver_coin.png,silver,,,,,training,,,silver,deval,,,,,0.0,0.0,0.0,0.0,1.0,0.0,2.0,0.0,,,,,,,,,0.0,training_resp,,135.37787349242717,11.314570445276331,2.0,,left,silver,0.0,242.0,2.0,right,2023_Sep_22_1512,habits_v_MRI,5.0,40.0,1.0,5.0,30.0,15.0,5.0,15.0,30.0,30.0,60.0,RR,60.03380067093336,
18.0,0.0,resp1,stim/left_resp_img.png,"[0.5, 0]",left,stim/silver_coin.png,silver,,,,,training,,,silver,deval,,,,,0.0,0.0,0.0,0.0,1.0,0.0,2.0,0.0,,,,,,,,,0.0,training_resp,,135.71120653252,11.64785451372154,2.0,,left,silver,0.0,242.0,2.0,right,2023_Sep_22_1512,habits_v_MRI,5.0,40.0,1.0,5.0,30.0,15.0,5.0,15.0,30.0,30.0,60.0,RR,60.03380067093336,
18.0,0.0,resp1,stim/left_resp_img.png,"[0.5, 0]",left,stim/silver_coin.png,silver,,,,,training,,,silver,deval,,,,,0.0,0.0,0.0,0.0,1.0,0.0,2.0,0.0,,,,,,,,,0.0,training_resp,,136.07788838920533,12.014558656897862,2.0,,left,silver,0.0,242.0,2.0,right,2023_Sep_22_1512,habits_v_MRI,5.0,40.0,1.0,5.0,30.0,15.0,5.0,15.0,30.0,30.0,60.0,RR,60.03380067093336,
18.0,0.0,resp1,stim/left_resp_img.png,"[0.5, 0]",left,stim/silver_coin.png,silver,,,,,training,,,silver,deval,,,,,0.0,0.0,0.0,0.0,1.0,0.0,2.0,0.0,,,,,,,,,0.0,training_resp,,136.42790346191032,12.364549390389584,2.0,,left,silver,0.0,242.0,2.0,right,2023_Sep_22_1512,habits_v_MRI,5.0,40.0,1.0,5.0,30.0,15.0,5.0,15.0,30.0,30.0,60.0,RR,60.03380067093336,
18.0,0.0,resp1,stim/left_resp_img.png,"[0.5, 0]",left,stim/silver_coin.png,silver,,,,,training,,,silver,deval,,,,,0.0,0.0,0.0,0.0,1.0,0.0,2.0,0.0,,,,,,,,,0.0,training_resp,,136.77793788869167,12.71454569551861,2.0,,left,silver,0.0,242.0,2.0,right,2023_Sep_22_1512,habits_v_MRI,5.0,40.0,1.0,5.0,30.0,15.0,5.0,15.0,30.0,30.0,60.0,RR,60.03380067093336,
18.0,0.0,resp1,stim/left_resp_img.png,"[0.5, 0]",left,stim/silver_coin.png,silver,,,,,training,,,silver,deval,,,,,0.0,0.0,0.0,0.0,1.0,0.0,2.0,0.0,,,,,,,,,0.0,training_resp,,137.14443206955912,13.081084742647365,2.0,,left,silver,0.0,242.0,2.0,right,2023_Sep_22_1512,habits_v_MRI,5.0,40.0,1.0,5.0,30.0,15.0,5.0,15.0,30.0,30.0,60.0,RR,60.03380067093336,
18.0,0.0,resp1,stim/left_resp_img.png,"[0.5, 0]",left,stim/silver_coin.png,silver,,,,,training,,,silver,deval,,,,,0.0,0.0,0.0,0.0,1.0,0.0,2.0,0.0,,,,,,,,,0.0,training_resp,,137.51101598292007,13.447716161463177,2.0,,left,silver,0.0,242.0,2.0,right,2023_Sep_22_1512,habits_v_MRI,5.0,40.0,1.0,5.0,30.0,15.0,5.0,15.0,30.0,30.0,60.0,RR,60.03380067093336,
18.0,0.0,resp1,stim/left_resp_img.png,"[0.5, 0]",left,stim/silver_coin.png,silver,,,,,training,,,silver,deval,,,,,0.0,0.0,0.0,0.0,1.0,0.0,2.0,0.0,,,,,,,,,0.0,training_resp,,137.8779726086941,13.814579829049762,2.0,,left,silver,0.0,242.0,2.0,right,2023_Sep_22_1512,habits_v_MRI,5.0,40.0,1.0,5.0,30.0,15.0,5.0,15.0,30.0,30.0,60.0,RR,60.03380067093336,
18.0,0.0,resp1,stim/left_resp_img.png,"[0.5, 0]",left,stim/silver_coin.png,silver,,,,,training,,,silver,deval,,,,,0.0,0.0,0.0,0.0,1.0,0.0,2.0,0.0,,,,,,,,,0.0,training_resp,,138.2110276540334,14.147712290636264,2.0,,left,silver,0.0,242.0,2.0,right,2023_Sep_22_1512,habits_v_MRI,5.0,40.0,1.0,5.0,30.0,15.0,5.0,15.0,30.0,30.0,60.0,RR,60.03380067093336,
18.0,0.0,resp1,stim/left_resp_img.png,"[0.5, 0]",left,stim/silver_coin.png,silver,,,,,training,,,silver,deval,,,,,0.0,0.0,0.0,0.0,1.0,0.0,2.0,0.0,,,,,,,,,0.0,training_resp,,138.51102947213803,14.44768214522628,2.0,,left,silver,0.0,242.0,2.0,right,2023_Sep_22_1512,habits_v_MRI,5.0,40.0,1.0,5.0,30.0,15.0,5.0,15.0,30.0,30.0,60.0,RR,60.03380067093336,
18.0,0.0,resp1,stim/left_resp_img.png,"[0.5, 0]",left,stim/silver_coin.png,silver,,,,,training,,,silver,deval,,,,,0.0,0.0,0.0,0.0,1.0,0.0,2.0,0.0,,,,,,,,,0.0,training_resp,,138.86168645473663,14.798098374943947,2.0,21.0,left,silver,1.0,242.0,2.0,right,2023_Sep_22_1512,habits_v_MRI,5.0,40.0,1.0,5.0,30.0,15.0,5.0,15.0,30.0,30.0,60.0,RR,60.03380067093336,
18.0,0.0,resp1,stim/left_resp_img.png,"[0.5, 0]",left,stim/silver_coin.png,silver,,,,,training,,,silver,deval,,,,,0.0,0.0,0.0,0.0,1.0,0.0,2.0,0.0,,,,,,,,,0.0,training_resp,,139.82841065575485,15.76480703408015,2.0,,left,silver,0.0,242.0,2.0,right,2023_Sep_22_1512,habits_v_MRI,5.0,40.0,1.0,5.0,30.0,15.0,5.0,15.0,30.0,30.0,60.0,RR,60.03380067093336,
18.0,0.0,resp1,stim/left_resp_img.png,"[0.5, 0]",left,stim/silver_coin.png,silver,,,,,training,,,silver,deval,,,,,0.0,0.0,0.0,0.0,1.0,0.0,2.0,0.0,,,,,,,,,0.0,training_resp,,140.41107392782578,16.34756267783814,2.0,,left,silver,0.0,242.0,2.0,right,2023_Sep_22_1512,habits_v_MRI,5.0,40.0,1.0,5.0,30.0,15.0,5.0,15.0,30.0,30.0,60.0,RR,60.03380067093336,
18.0,0.0,resp1,stim/left_resp_img.png,"[0.5, 0]",left,stim/silver_coin.png,silver,,,,,training,,,silver,deval,,,,,0.0,0.0,0.0,0.0,1.0,0.0,2.0,0.0,,,,,,,,,0.0,training_resp,,140.79418914669077,16.730862053576857,2.0,,left,silver,0.0,242.0,2.0,right,2023_Sep_22_1512,habits_v_MRI,5.0,40.0,1.0,5.0,30.0,15.0,5.0,15.0,30.0,30.0,60.0,RR,60.03380067093336,
18.0,0.0,resp1,stim/left_resp_img.png,"[0.5, 0]",left,stim/silver_coin.png,silver,,,,,training,,,silver,deval,,,,,0.0,0.0,0.0,0.0,1.0,0.0,2.0,0.0,,,,,,,,,0.0,training_resp,,141.14475199815934,17.081098818336613,2.0,,left,silver,0.0,242.0,2.0,right,2023_Sep_22_1512,habits_v_MRI,5.0,40.0,1.0,5.0,30.0,15.0,5.0,15.0,30.0,30.0,60.0,RR,60.03380067093336,
18.0,0.0,resp1,stim/left_resp_img.png,"[0.5, 0]",left,stim/silver_coin.png,silver,,,,,training,,,silver,deval,,,,,0.0,0.0,0.0,0.0,1.0,0.0,2.0,0.0,,,,,,,,,0.0,training_resp,,141.47739357021055,17.414096681168303,2.0,,left,silver,0.0,242.0,2.0,right,2023_Sep_22_1512,habits_v_MRI,5.0,40.0,1.0,5.0,30.0,15.0,5.0,15.0,30.0,30.0,60.0,RR,60.03380067093336,
18.0,0.0,resp1,stim/left_resp_img.png,"[0.5, 0]",left,stim/silver_coin.png,silver,,,,,training,,,silver,deval,,,,,0.0,0.0,0.0,0.0,1.0,0.0,2.0,0.0,,,,,,,,,0.0,training_resp,,141.79408768448047,17.7307752535271,2.0,,left,silver,0.0,242.0,2.0,right,2023_Sep_22_1512,habits_v_MRI,5.0,40.0,1.0,5.0,30.0,15.0,5.0,15.0,30.0,30.0,60.0,RR,60.03380067093336,
18.0,0.0,resp1,stim/left_resp_img.png,"[0.5, 0]",left,stim/silver_coin.png,silver,,,,,training,,,silver,deval,,,,,0.0,0.0,0.0,0.0,1.0,0.0,2.0,0.0,,,,,,,,,0.0,training_resp,,142.12743392051198,18.06409304495901,2.0,,left,silver,0.0,242.0,2.0,right,2023_Sep_22_1512,habits_v_MRI,5.0,40.0,1.0,5.0,30.0,15.0,5.0,15.0,30.0,30.0,60.0,RR,60.03380067093336,
18.0,0.0,resp1,stim/left_resp_img.png,"[0.5, 0]",left,stim/silver_coin.png,silver,,,,,training,,,silver,deval,,,,,0.0,0.0,0.0,0.0,1.0,0.0,2.0,0.0,,,,,,,,,0.0,training_resp,,142.47742172158905,18.414068529818906,2.0,,left,silver,0.0,242.0,2.0,right,2023_Sep_22_1512,habits_v_MRI,5.0,40.0,1.0,5.0,30.0,15.0,5.0,15.0,30.0,30.0,60.0,RR,60.03380067093336,
18.0,0.0,resp1,stim/left_resp_img.png,"[0.5, 0]",left,stim/silver_coin.png,silver,,,,,training,,,silver,deval,,,,,0.0,0.0,0.0,0.0,1.0,0.0,2.0,0.0,,,,,,,,,0.0,training_resp,,142.82743679429404,18.76406483494793,2.0,,left,silver,0.0,242.0,2.0,right,2023_Sep_22_1512,habits_v_MRI,5.0,40.0,1.0,5.0,30.0,15.0,5.0,15.0,30.0,30.0,60.0,RR,60.03380067093336,
18.0,0.0,resp1,stim/left_resp_img.png,"[0.5, 0]",left,stim/silver_coin.png,silver,,,,,training,,,silver,deval,,,,,0.0,0.0,0.0,0.0,1.0,0.0,2.0,0.0,,,,,,,,,0.0,training_resp,,143.17737151830806,19.11402653733967,2.0,,left,silver,0.0,242.0,2.0,right,2023_Sep_22_1512,habits_v_MRI,5.0,40.0,1.0,5.0,30.0,15.0,5.0,15.0,30.0,30.0,60.0,RR,60.03380067093336,
18.0,0.0,resp1,stim/left_resp_img.png,"[0.5, 0]",left,stim/silver_coin.png,silver,,,,,training,,,silver,deval,,,,,0.0,0.0,0.0,0.0,1.0,0.0,2.0,0.0,,,,,,,,,0.0,training_resp,,143.5606245615927,19.49733822932467,2.0,,left,silver,0.0,242.0,2.0,right,2023_Sep_22_1512,habits_v_MRI,5.0,40.0,1.0,5.0,30.0,15.0,5.0,15.0,30.0,30.0,60.0,RR,60.03380067093336,
18.0,0.0,resp1,stim/left_resp_img.png,"[0.5, 0]",left,stim/silver_coin.png,silver,,,,,training,,,silver,deval,,,,,0.0,0.0,0.0,0.0,1.0,0.0,2.0,0.0,,,,,,,,,0.0,training_resp,,143.89395349627011,19.83063959912397,2.0,,left,silver,0.0,242.0,2.0,right,2023_Sep_22_1512,habits_v_MRI,5.0,40.0,1.0,5.0,30.0,15.0,5.0,15.0,30.0,30.0,60.0,RR,60.03380067093336,
18.0,0.0,resp1,stim/left_resp_img.png,"[0.5, 0]",left,stim/silver_coin.png,silver,,,,,training,,,silver,deval,,,,,0.0,0.0,0.0,0.0,1.0,0.0,2.0,0.0,,,,,,,,,0.0,training_resp,,144.22726512959343,20.16393627700745,2.0,,left,silver,0.0,242.0,2.0,right,2023_Sep_22_1512,habits_v_MRI,5.0,40.0,1.0,5.0,30.0,15.0,5.0,15.0,30.0,30.0,60.0,RR,60.03380067093336,
18.0,0.0,resp1,stim/left_resp_img.png,"[0.5, 0]",left,stim/silver_coin.png,silver,,,,,training,,,silver,deval,,,,,0.0,0.0,0.0,0.0,1.0,0.0,2.0,0.0,,,,,,,,,0.0,training_resp,,144.54404252496897,20.480606638564492,2.0,,left,silver,0.0,242.0,2.0,right,2023_Sep_22_1512,habits_v_MRI,5.0,40.0,1.0,5.0,30.0,15.0,5.0,15.0,30.0,30.0,60.0,RR,60.03380067093336,
18.0,0.0,resp1,stim/left_resp_img.png,"[0.5, 0]",left,stim/silver_coin.png,silver,,,,,training,,,silver,deval,,,,,0.0,0.0,0.0,0.0,1.0,0.0,2.0,0.0,,,,,,,,,0.0,training_resp,,144.8772632528271,20.81392061783117,2.0,,left,silver,0.0,242.0,2.0,right,2023_Sep_22_1512,habits_v_MRI,5.0,40.0,1.0,5.0,30.0,15.0,5.0,15.0,30.0,30.0,60.0,RR,60.03380067093336,
18.0,0.0,resp1,stim/left_resp_img.png,"[0.5, 0]",left,stim/silver_coin.png,silver,,,,,training,,,silver,deval,,,,,0.0,0.0,0.0,0.0,1.0,0.0,2.0,0.0,,,,,,,,,0.0,training_resp,,145.21121591629344,21.147669477097224,2.0,,left,silver,0.0,242.0,2.0,right,2023_Sep_22_1512,habits_v_MRI,5.0,40.0,1.0,5.0,30.0,15.0,5.0,15.0,30.0,30.0,60.0,RR,60.03380067093336,
18.0,0.0,resp1,stim/left_resp_img.png,"[0.5, 0]",left,stim/silver_coin.png,silver,,,,,training,,,silver,deval,,,,,0.0,0.0,0.0,0.0,1.0,0.0,2.0,0.0,,,,,,,,,0.0,training_resp,,145.56050403852714,21.497202750848373,2.0,,left,silver,0.0,242.0,2.0,right,2023_Sep_22_1512,habits_v_MRI,5.0,40.0,1.0,5.0,30.0,15.0,5.0,15.0,30.0,30.0,60.0,RR,60.03380067093336,
18.0,0.0,resp1,stim/left_resp_img.png,"[0.5, 0]",left,stim/silver_coin.png,silver,,,,,training,,,silver,deval,,,,,0.0,0.0,0.0,0.0,1.0,0.0,2.0,0.0,,,,,,,,,0.0,training_resp,,145.9105208707042,21.84714099377743,2.0,,left,silver,0.0,242.0,2.0,right,2023_Sep_22_1512,habits_v_MRI,5.0,40.0,1.0,5.0,30.0,15.0,5.0,15.0,30.0,30.0,60.0,RR,60.03380067093336,
18.0,0.0,resp1,stim/left_resp_img.png,"[0.5, 0]",left,stim/silver_coin.png,silver,,,,,training,,,silver,deval,,,,,0.0,0.0,0.0,0.0,1.0,0.0,2.0,0.0,,,,,,,,,0.0,training_resp,,146.26061101374216,22.19717248811503,2.0,,left,silver,0.0,242.0,2.0,right,2023_Sep_22_1512,habits_v_MRI,5.0,40.0,1.0,5.0,30.0,15.0,5.0,15.0,30.0,30.0,60.0,RR,60.03380067093336,
18.0,0.0,resp1,stim/left_resp_img.png,"[0.5, 0]",left,stim/silver_coin.png,silver,,,,,training,,,silver,deval,,,,,0.0,0.0,0.0,0.0,1.0,0.0,2.0,0.0,,,,,,,,,0.0,training_resp,,146.61044574173866,22.547109264851315,2.0,,left,silver,0.0,242.0,2.0,right,2023_Sep_22_1512,habits_v_MRI,5.0,40.0,1.0,5.0,30.0,15.0,5.0,15.0,30.0,30.0,60.0,RR,60.03380067093336,
18.0,0.0,resp1,stim/left_resp_img.png,"[0.5, 0]",left,stim/silver_coin.png,silver,,,,,training,,,silver,deval,,,,,0.0,0.0,0.0,0.0,1.0,0.0,2.0,0.0,,,,,,,,,0.0,training_resp,,146.96104642160935,22.897529893234605,2.0,7.0,left,silver,1.0,242.0,2.0,right,2023_Sep_22_1512,habits_v_MRI,5.0,40.0,1.0,5.0,30.0,15.0,5.0,15.0,30.0,30.0,60.0,RR,60.03380067093336,
18.0,0.0,resp1,stim/left_resp_img.png,"[0.5, 0]",left,stim/silver_coin.png,silver,,,,,training,,,silver,deval,,,,,0.0,0.0,0.0,0.0,1.0,0.0,2.0,0.0,,,,,,,,,0.0,training_resp,,147.6940321441507,23.630354331893614,2.0,,left,silver,0.0,242.0,2.0,right,2023_Sep_22_1512,habits_v_MRI,5.0,40.0,1.0,5.0,30.0,15.0,5.0,15.0,30.0,30.0,60.0,RR,60.03380067093336,
18.0,0.0,resp1,stim/left_resp_img.png,"[0.5, 0]",left,stim/silver_coin.png,silver,,,,,training,,,silver,deval,,,,,0.0,0.0,0.0,0.0,1.0,0.0,2.0,0.0,,,,,,,,,0.0,training_resp,,148.1770143478061,24.11369634524453,2.0,,right,,,242.0,2.0,right,2023_Sep_22_1512,habits_v_MRI,5.0,40.0,1.0,5.0,30.0,15.0,5.0,15.0,30.0,30.0,60.0,RR,60.03380067093336,
18.0,0.0,resp1,stim/left_resp_img.png,"[0.5, 0]",left,stim/silver_coin.png,silver,,,,,training,,,silver,deval,,,,,0.0,0.0,0.0,0.0,1.0,0.0,2.0,0.0,,,,,,,,,0.0,training_resp,,148.64366465149214,24.58033785162843,2.0,,left,silver,0.0,242.0,2.0,right,2023_Sep_22_1512,habits_v_MRI,5.0,40.0,1.0,5.0,30.0,15.0,5.0,15.0,30.0,30.0,60.0,RR,60.03380067093336,
18.0,0.0,resp1,stim/left_resp_img.png,"[0.5, 0]",left,stim/silver_coin.png,silver,,,,,training,,,silver,deval,,,,,0.0,0.0,0.0,0.0,1.0,0.0,2.0,0.0,,,,,,,,,0.0,training_resp,,148.97706161864335,24.913566790288318,2.0,,left,silver,0.0,242.0,2.0,right,2023_Sep_22_1512,habits_v_MRI,5.0,40.0,1.0,5.0,30.0,15.0,5.0,15.0,30.0,30.0,60.0,RR,60.03380067093336,
18.0,0.0,resp1,stim/left_resp_img.png,"[0.5, 0]",left,stim/silver_coin.png,silver,,,,,training,,,silver,deval,,,,,0.0,0.0,0.0,0.0,1.0,0.0,2.0,0.0,,,,,,,,,0.0,training_resp,,149.29364811256528,25.23028993562912,2.0,,left,silver,0.0,242.0,2.0,right,2023_Sep_22_1512,habits_v_MRI,5.0,40.0,1.0,5.0,30.0,15.0,5.0,15.0,30.0,30.0,60.0,RR,60.03380067093336,
18.0,0.0,resp1,stim/left_resp_img.png,"[0.5, 0]",left,stim/silver_coin.png,silver,,,,,training,,,silver,deval,,,,,0.0,0.0,0.0,0.0,1.0,0.0,2.0,0.0,,,,,,,,,0.0,training_resp,,149.61031700787134,25.546937717415855,2.0,,left,silver,0.0,242.0,2.0,right,2023_Sep_22_1512,habits_v_MRI,5.0,40.0,1.0,5.0,30.0,15.0,5.0,15.0,30.0,30.0,60.0,RR,60.03380067093336,
18.0,0.0,resp1,stim/left_resp_img.png,"[0.5, 0]",left,stim/silver_coin.png,silver,,,,,training,,,silver,deval,,,,,0.0,0.0,0.0,0.0,1.0,0.0,2.0,0.0,,,,,,,,,0.0,training_resp,,149.92683253687574,25.86353212891845,2.0,,left,silver,0.0,242.0,2.0,right,2023_Sep_22_1512,habits_v_MRI,5.0,40.0,1.0,5.0,30.0,15.0,5.0,15.0,30.0,30.0,60.0,RR,60.03380067093336,
18.0,0.0,resp1,stim/left_resp_img.png,"[0.5, 0]",left,stim/silver_coin.png,silver,,,,,training,,,silver,deval,,,,,0.0,0.0,0.0,0.0,1.0,0.0,2.0,0.0,,,,,,,,,0.0,training_resp,,150.21016229264205,26.14682845491916,2.0,16.0,left,silver,1.0,242.0,2.0,right,2023_Sep_22_1512,habits_v_MRI,5.0,40.0,1.0,5.0,30.0,15.0,5.0,15.0,30.0,30.0,60.0,RR,60.03380067093336,
18.0,0.0,resp1,stim/left_resp_img.png,"[0.5, 0]",left,stim/silver_coin.png,silver,,,,,training,,,silver,deval,,,,,0.0,0.0,0.0,0.0,1.0,0.0,2.0,0.0,,,,,,,,,0.0,training_resp,,151.02675025275676,26.963401459652232,2.0,,left,silver,0.0,242.0,2.0,right,2023_Sep_22_1512,habits_v_MRI,5.0,40.0,1.0,5.0,30.0,15.0,5.0,15.0,30.0,30.0,60.0,RR,60.03380067093336,
18.0,0.0,resp1,stim/left_resp_img.png,"[0.5, 0]",left,stim/silver_coin.png,silver,,,,,training,,,silver,deval,,,,,0.0,0.0,0.0,0.0,1.0,0.0,2.0,0.0,,,,,,,,,0.0,training_resp,,151.32675529655535,27.263416180445347,2.0,,left,silver,0.0,242.0,2.0,right,2023_Sep_22_1512,habits_v_MRI,5.0,40.0,1.0,5.0,30.0,15.0,5.0,15.0,30.0,30.0,60.0,RR,60.03380067093336,
18.0,0.0,resp1,stim/left_resp_img.png,"[0.5, 0]",left,stim/silver_coin.png,silver,,,,,training,,,silver,deval,,,,,0.0,0.0,0.0,0.0,1.0,0.0,2.0,0.0,,,,,,,,,0.0,training_resp,,151.6435933933244,27.58012818256975,2.0,,left,silver,0.0,242.0,2.0,right,2023_Sep_22_1512,habits_v_MRI,5.0,40.0,1.0,5.0,30.0,15.0,5.0,15.0,30.0,30.0,60.0,RR,60.03380067093336,
18.0,0.0,resp1,stim/left_resp_img.png,"[0.5, 0]",left,stim/silver_coin.png,silver,,,,,training,,,silver,deval,,,,,0.0,0.0,0.0,0.0,1.0,0.0,2.0,0.0,,,,,,,,,0.0,training_resp,,151.94340958833345,27.880057276284788,2.0,,left,silver,0.0,242.0,2.0,right,2023_Sep_22_1512,habits_v_MRI,5.0,40.0,1.0,5.0,30.0,15.0,5.0,15.0,30.0,30.0,60.0,RR,60.03380067093336,
18.0,0.0,resp1,stim/left_resp_img.png,"[0.5, 0]",left,stim/silver_coin.png,silver,,,,,training,,,silver,deval,,,,,0.0,0.0,0.0,0.0,1.0,0.0,2.0,0.0,,,,,,,,,0.0,training_resp,,152.25995766738197,28.19665549995261,2.0,,left,silver,0.0,242.0,2.0,right,2023_Sep_22_1512,habits_v_MRI,5.0,40.0,1.0,5.0,30.0,15.0,5.0,15.0,30.0,30.0,60.0,RR,60.03380067093336,
18.0,0.0,resp1,stim/left_resp_img.png,"[0.5, 0]",left,stim/silver_coin.png,silver,,,,,training,,,silver,deval,,,,,0.0,0.0,0.0,0.0,1.0,0.0,2.0,0.0,,,,,,,,,0.0,training_resp,,152.61008094690624,28.546687287540408,2.0,,left,silver,0.0,242.0,2.0,right,2023_Sep_22_1512,habits_v_MRI,5.0,40.0,1.0,5.0,30.0,15.0,5.0,15.0,30.0,30.0,60.0,RR,60.03380067093336,
18.0,0.0,resp1,stim/left_resp_img.png,"[0.5, 0]",left,stim/silver_coin.png,silver,,,,,training,,,silver,deval,,,,,0.0,0.0,0.0,0.0,1.0,0.0,2.0,0.0,,,,,,,,,0.0,training_resp,,152.90989450272173,28.846602892066585,2.0,,left,silver,0.0,242.0,2.0,right,2023_Sep_22_1512,habits_v_MRI,5.0,40.0,1.0,5.0,30.0,15.0,5.0,15.0,30.0,30.0,60.0,RR,60.03380067093336,
18.0,0.0,resp1,stim/left_resp_img.png,"[0.5, 0]",left,stim/silver_coin.png,silver,,,,,training,,,silver,deval,,,,,0.0,0.0,0.0,0.0,1.0,0.0,2.0,0.0,,,,,,,,,0.0,training_resp,,153.22666075488087,29.16333336851676,2.0,,left,silver,0.0,242.0,2.0,right,2023_Sep_22_1512,habits_v_MRI,5.0,40.0,1.0,5.0,30.0,15.0,5.0,15.0,30.0,30.0,60.0,RR,60.03380067093336,
18.0,0.0,resp1,stim/left_resp_img.png,"[0.5, 0]",left,stim/silver_coin.png,silver,,,,,training,,,silver,deval,,,,,0.0,0.0,0.0,0.0,1.0,0.0,2.0,0.0,,,,,,,,,0.0,training_resp,,153.54326777582173,29.479889365116836,2.0,,left,silver,0.0,242.0,2.0,right,2023_Sep_22_1512,habits_v_MRI,5.0,40.0,1.0,5.0,30.0,15.0,5.0,15.0,30.0,30.0,60.0,RR,60.03380067093336,
18.0,0.0,resp1,stim/left_resp_img.png,"[0.5, 0]",left,stim/silver_coin.png,silver,,,,,training,,,silver,deval,,,,,0.0,0.0,0.0,0.0,1.0,0.0,2.0,0.0,,,,,,,,,0.0,training_resp,,153.84333909262205,29.77992431973689,2.0,,left,silver,0.0,242.0,2.0,right,2023_Sep_22_1512,habits_v_MRI,5.0,40.0,1.0,5.0,30.0,15.0,5.0,15.0,30.0,30.0,60.0,RR,60.03380067093336,
18.0,0.0,resp1,stim/left_resp_img.png,"[0.5, 0]",left,stim/silver_coin.png,silver,,,,,training,,,silver,deval,,,,,0.0,0.0,0.0,0.0,1.0,0.0,2.0,0.0,,,,,,,,,0.0,training_resp,,154.14336642291164,30.079907663486665,2.0,,left,silver,0.0,242.0,2.0,right,2023_Sep_22_1512,habits_v_MRI,5.0,40.0,1.0,5.0,30.0,15.0,5.0,15.0,30.0,30.0,60.0,RR,60.03380067093336,
18.0,0.0,resp1,stim/left_resp_img.png,"[0.5, 0]",left,stim/silver_coin.png,silver,,,,,training,,,silver,deval,,,,,0.0,0.0,0.0,0.0,1.0,0.0,2.0,0.0,,,,,,,,,0.0,training_resp,,154.47658920346294,30.41319495759672,2.0,,left,silver,0.0,242.0,2.0,right,2023_Sep_22_1512,habits_v_MRI,5.0,40.0,1.0,5.0,30.0,15.0,5.0,15.0,30.0,30.0,60.0,RR,60.03380067093336,
18.0,0.0,resp1,stim/left_resp_img.png,"[0.5, 0]",left,stim/silver_coin.png,silver,,,,,training,,,silver,deval,,,,,0.0,0.0,0.0,0.0,1.0,0.0,2.0,0.0,,,,,,,,,0.0,training_resp,,154.7932475420239,30.729860920488136,2.0,,left,silver,0.0,242.0,2.0,right,2023_Sep_22_1512,habits_v_MRI,5.0,40.0,1.0,5.0,30.0,15.0,5.0,15.0,30.0,30.0,60.0,RR,60.03380067093336,
18.0,0.0,resp1,stim/left_resp_img.png,"[0.5, 0]",left,stim/silver_coin.png,silver,,,,,training,,,silver,deval,,,,,0.0,0.0,0.0,0.0,1.0,0.0,2.0,0.0,,,,,,,,,0.0,training_resp,,155.07657407209626,31.013212962745456,2.0,,left,silver,0.0,242.0,2.0,right,2023_Sep_22_1512,habits_v_MRI,5.0,40.0,1.0,5.0,30.0,15.0,5.0,15.0,30.0,30.0,60.0,RR,60.03380067093336,
18.0,0.0,resp1,stim/left_resp_img.png,"[0.5, 0]",left,stim/silver_coin.png,silver,,,,,training,,,silver,deval,,,,,0.0,0.0,0.0,0.0,1.0,0.0,2.0,0.0,,,,,,,,,0.0,training_resp,,155.4095528741309,31.34631551351049,2.0,,left,silver,0.0,242.0,2.0,right,2023_Sep_22_1512,habits_v_MRI,5.0,40.0,1.0,5.0,30.0,15.0,5.0,15.0,30.0,30.0,60.0,RR,60.03380067093336,
18.0,0.0,resp1,stim/left_resp_img.png,"[0.5, 0]",left,stim/silver_coin.png,silver,,,,,training,,,silver,deval,,,,,0.0,0.0,0.0,0.0,1.0,0.0,2.0,0.0,,,,,,,,,0.0,training_resp,,155.69313218005118,31.629809778823983,2.0,15.0,left,silver,1.0,242.0,2.0,right,2023_Sep_22_1512,habits_v_MRI,5.0,40.0,1.0,5.0,30.0,15.0,5.0,15.0,30.0,30.0,60.0,RR,60.03380067093336,
18.0,0.0,resp1,stim/left_resp_img.png,"[0.5, 0]",left,stim/silver_coin.png,silver,,,,,training,,,silver,deval,,,,,0.0,0.0,0.0,0.0,1.0,0.0,2.0,0.0,,,,,,,,,0.0,training_resp,,156.6430315389007,32.57967952010222,2.0,,left,silver,0.0,242.0,2.0,right,2023_Sep_22_1512,habits_v_MRI,5.0,40.0,1.0,5.0,30.0,15.0,5.0,15.0,30.0,30.0,60.0,RR,60.03380067093336,
18.0,0.0,resp1,stim/left_resp_img.png,"[0.5, 0]",left,stim/silver_coin.png,silver,,,,,training,,,silver,deval,,,,,0.0,0.0,0.0,0.0,1.0,0.0,2.0,0.0,,,,,,,,,0.0,training_resp,,156.9429673772538,32.879671954433434,2.0,,left,silver,0.0,242.0,2.0,right,2023_Sep_22_1512,habits_v_MRI,5.0,40.0,1.0,5.0,30.0,15.0,5.0,15.0,30.0,30.0,60.0,RR,60.03380067093336,
18.0,0.0,resp1,stim/left_resp_img.png,"[0.5, 0]",left,stim/silver_coin.png,silver,,,,,training,,,silver,deval,,,,,0.0,0.0,0.0,0.0,1.0,0.0,2.0,0.0,,,,,,,,,0.0,training_resp,,157.19345562756644,33.13007457766798,2.0,,left,silver,0.0,242.0,2.0,right,2023_Sep_22_1512,habits_v_MRI,5.0,40.0,1.0,5.0,30.0,15.0,5.0,15.0,30.0,30.0,60.0,RR,60.03380067093336,
18.0,0.0,resp1,stim/left_resp_img.png,"[0.5, 0]",left,stim/silver_coin.png,silver,,,,,training,,,silver,deval,,,,,0.0,0.0,0.0,0.0,1.0,0.0,2.0,0.0,,,,,,,,,0.0,training_resp,,157.50941751294886,33.44637633219827,2.0,,left,silver,0.0,242.0,2.0,right,2023_Sep_22_1512,habits_v_MRI,5.0,40.0,1.0,5.0,30.0,15.0,5.0,15.0,30.0,30.0,60.0,RR,60.03380067093336,
18.0,0.0,resp1,stim/left_resp_img.png,"[0.5, 0]",left,stim/silver_coin.png,silver,,,,,training,,,silver,deval,,,,,0.0,0.0,0.0,0.0,1.0,0.0,2.0,0.0,,,,,,,,,0.0,training_resp,,157.7929141242348,33.72960052030976,2.0,,left,silver,0.0,242.0,2.0,right,2023_Sep_22_1512,habits_v_MRI,5.0,40.0,1.0,5.0,30.0,15.0,5.0,15.0,30.0,30.0,60.0,RR,60.03380067093336,
18.0,0.0,resp1,stim/left_resp_img.png,"[0.5, 0]",left,stim/silver_coin.png,silver,,,,,training,,,silver,deval,,,,,0.0,0.0,0.0,0.0,1.0,0.0,2.0,0.0,,,,,,,,,0.0,training_resp,,158.25959844415777,34.19627780240262,2.0,,left,silver,0.0,242.0,2.0,right,2023_Sep_22_1512,habits_v_MRI,5.0,40.0,1.0,5.0,30.0,15.0,5.0,15.0,30.0,30.0,60.0,RR,60.03380067093336,
18.0,0.0,resp1,stim/left_resp_img.png,"[0.5, 0]",left,stim/silver_coin.png,silver,,,,,training,,,silver,deval,,,,,0.0,0.0,0.0,0.0,1.0,0.0,2.0,0.0,,,,,,,,,0.0,training_resp,,158.60958331279107,34.546208127751015,2.0,,left,silver,0.0,242.0,2.0,right,2023_Sep_22_1512,habits_v_MRI,5.0,40.0,1.0,5.0,30.0,15.0,5.0,15.0,30.0,30.0,60.0,RR,60.03380067093336,
18.0,0.0,resp1,stim/left_resp_img.png,"[0.5, 0]",left,stim/silver_coin.png,silver,,,,,training,,,silver,deval,,,,,0.0,0.0,0.0,0.0,1.0,0.0,2.0,0.0,,,,,,,,,0.0,training_resp,,158.87624159269035,34.81281626303098,2.0,,left,silver,0.0,242.0,2.0,right,2023_Sep_22_1512,habits_v_MRI,5.0,40.0,1.0,5.0,30.0,15.0,5.0,15.0,30.0,30.0,60.0,RR,60.03380067093336,
18.0,0.0,resp1,stim/left_resp_img.png,"[0.5, 0]",left,stim/silver_coin.png,silver,,,,,training,,,silver,deval,,,,,0.0,0.0,0.0,0.0,1.0,0.0,2.0,0.0,,,,,,,,,0.0,training_resp,,159.159771926963,35.09644659332116,2.0,,left,silver,0.0,242.0,2.0,right,2023_Sep_22_1512,habits_v_MRI,5.0,40.0,1.0,5.0,30.0,15.0,5.0,15.0,30.0,30.0,60.0,RR,60.03380067093336,
18.0,0.0,resp1,stim/left_resp_img.png,"[0.5, 0]",left,stim/silver_coin.png,silver,,,,,training,,,silver,deval,,,,,0.0,0.0,0.0,0.0,1.0,0.0,2.0,0.0,,,,,,,,,0.0,training_resp,,159.64246968447696,35.579344049619976,2.0,,left,silver,0.0,242.0,2.0,right,2023_Sep_22_1512,habits_v_MRI,5.0,40.0,1.0,5.0,30.0,15.0,5.0,15.0,30.0,30.0,60.0,RR,60.03380067093336,
18.0,0.0,resp1,stim/left_resp_img.png,"[0.5, 0]",left,stim/silver_coin.png,silver,,,,,training,,,silver,deval,,,,,0.0,0.0,0.0,0.0,1.0,0.0,2.0,0.0,,,,,,,,,0.0,training_resp,,160.0760086987575,36.012706824578345,2.0,,left,silver,0.0,242.0,2.0,right,2023_Sep_22_1512,habits_v_MRI,5.0,40.0,1.0,5.0,30.0,15.0,5.0,15.0,30.0,30.0,60.0,RR,60.03380067093336,
18.0,0.0,resp1,stim/left_resp_img.png,"[0.5, 0]",left,stim/silver_coin.png,silver,,,,,training,,,silver,deval,,,,,0.0,0.0,0.0,0.0,1.0,0.0,2.0,0.0,,,,,,,,,0.0,training_resp,,160.36012669288905,36.29616853990592,2.0,,left,silver,0.0,242.0,2.0,right,2023_Sep_22_1512,habits_v_MRI,5.0,40.0,1.0,5.0,30.0,15.0,5.0,15.0,30.0,30.0,60.0,RR,60.03380067093336,
18.0,0.0,resp1,stim/left_resp_img.png,"[0.5, 0]",left,stim/silver_coin.png,silver,,,,,training,,,silver,deval,,,,,0.0,0.0,0.0,0.0,1.0,0.0,2.0,0.0,,,,,,,,,0.0,training_resp,,160.67612376748002,36.6127749743464,2.0,,left,silver,0.0,242.0,2.0,right,2023_Sep_22_1512,habits_v_MRI,5.0,40.0,1.0,5.0,30.0,15.0,5.0,15.0,30.0,30.0,60.0,RR,60.03380067093336,
18.0,0.0,resp1,stim/left_resp_img.png,"[0.5, 0]",left,stim/silver_coin.png,silver,,,,,training,,,silver,deval,,,,,0.0,0.0,0.0,0.0,1.0,0.0,2.0,0.0,,,,,,,,,0.0,training_resp,,160.90948073624168,36.8461457255471,2.0,,left,silver,0.0,242.0,2.0,right,2023_Sep_22_1512,habits_v_MRI,5.0,40.0,1.0,5.0,30.0,15.0,5.0,15.0,30.0,30.0,60.0,RR,60.03380067093336,
18.0,0.0,resp1,stim/left_resp_img.png,"[0.5, 0]",left,stim/silver_coin.png,silver,,,,,training,,,silver,deval,,,,,0.0,0.0,0.0,0.0,1.0,0.0,2.0,0.0,,,,,,,,,0.0,training_resp,,161.17622933513485,37.11294857447501,2.0,12.0,left,silver,1.0,242.0,2.0,right,2023_Sep_22_1512,habits_v_MRI,5.0,40.0,1.0,5.0,30.0,15.0,5.0,15.0,30.0,30.0,60.0,RR,60.03380067093336,
18.0,0.0,resp1,stim/left_resp_img.png,"[0.5, 0]",left,stim/silver_coin.png,silver,,,,,training,,,silver,deval,,,,,0.0,0.0,0.0,0.0,1.0,0.0,2.0,0.0,,,,,,,,,0.0,training_resp,,162.0100957850227,37.9464197322086,2.0,,left,silver,0.0,242.0,2.0,right,2023_Sep_22_1512,habits_v_MRI,5.0,40.0,1.0,5.0,30.0,15.0,5.0,15.0,30.0,30.0,60.0,RR,60.03380067093336,
