list,trial_num_python,condition,stimulus,position,corrResp,coin_img,devalued_coin,stimulus_choice1,stimulus_choice2,position1,position2,phase,corrResp1,corrResp2,outcome,cond_val,outcome_choice1,outcome_choice2,cond_val1,cond_val2,blockLoop.thisRepN,blockLoop.thisTrialN,blockLoop.thisN,blockLoop.thisIndex,trialLoop.thisRepN,trialLoop.thisTrialN,trialLoop.thisN,trialLoop.thisIndex,choice_trialLoop.thisRepN,choice_trialLoop.thisTrialN,choice_trialLoop.thisN,choice_trialLoop.thisIndex,contingency_trialLoop.thisRepN,contingency_trialLoop.thisTrialN,contingency_trialLoop.thisN,contingency_trialLoop.thisIndex,run,event,duration,globalClock_t,routineClock_t,trial,nResp_untilRnf,resp,selected_coin,wasRnf,participant,task_ordering,hand,date,expName,n_repeat_training,credits_per_rnf,cost_response,min_resp_bet_rnf,max_resp_bet_rnf,mean_resp_bet_rnf,sigma_resp_bet_rnf,min_ITI,max_ITI,min_trial_duration,max_trial_duration,schedule,frameRate,Unnamed: 65
20.0,0.0,resp1,stim/left_resp_img.png,"[0.5, 0]",left,stim/silver_coin.png,gold,,,,,training,,,silver,val,,,,,0.0,0.0,0.0,0.0,0.0,0.0,0.0,0.0,,,,,,,,,0.0,instr_before_block,6.0,0.005740616004914,,,,,,,244.0,1.0,right,2023_Oct_09_1007,habits_v_MRI,5.0,40.0,1.0,5.0,30.0,15.0,5.0,15.0,30.0,30.0,60.0,RR,60.09620434555325,
20.0,0.0,resp1,stim/left_resp_img.png,"[0.5, 0]",left,stim/silver_coin.png,gold,,,,,training,,,silver,val,,,,,0.0,0.0,0.0,0.0,0.0,0.0,0.0,0.0,,,,,,,,,0.0,training_period_start,52.5,6.047004959080368,0.0,0.0,14.0,,,,244.0,1.0,right,2023_Oct_09_1007,habits_v_MRI,5.0,40.0,1.0,5.0,30.0,15.0,5.0,15.0,30.0,30.0,60.0,RR,60.09620434555325,
20.0,0.0,resp1,stim/left_resp_img.png,"[0.5, 0]",left,stim/silver_coin.png,gold,,,,,training,,,silver,val,,,,,0.0,0.0,0.0,0.0,0.0,0.0,0.0,0.0,,,,,,,,,0.0,training_resp,,7.62657199066598,1.598760090302676,0.0,,left,silver,0.0,244.0,1.0,right,2023_Oct_09_1007,habits_v_MRI,5.0,40.0,1.0,5.0,30.0,15.0,5.0,15.0,30.0,30.0,60.0,RR,60.09620434555325,
20.0,0.0,resp1,stim/left_resp_img.png,"[0.5, 0]",left,stim/silver_coin.png,gold,,,,,training,,,silver,val,,,,,0.0,0.0,0.0,0.0,0.0,0.0,0.0,0.0,,,,,,,,,0.0,training_resp,,8.426269183168188,2.3986408557975665,0.0,,left,silver,0.0,244.0,1.0,right,2023_Oct_09_1007,habits_v_MRI,5.0,40.0,1.0,5.0,30.0,15.0,5.0,15.0,30.0,30.0,60.0,RR,60.09620434555325,
20.0,0.0,resp1,stim/left_resp_img.png,"[0.5, 0]",left,stim/silver_coin.png,gold,,,,,training,,,silver,val,,,,,0.0,0.0,0.0,0.0,0.0,0.0,0.0,0.0,,,,,,,,,0.0,training_resp,,8.976243714569137,2.948653216240928,0.0,,left,silver,0.0,244.0,1.0,right,2023_Oct_09_1007,habits_v_MRI,5.0,40.0,1.0,5.0,30.0,15.0,5.0,15.0,30.0,30.0,60.0,RR,60.09620434555325,
20.0,0.0,resp1,stim/left_resp_img.png,"[0.5, 0]",left,stim/silver_coin.png,gold,,,,,training,,,silver,val,,,,,0.0,0.0,0.0,0.0,0.0,0.0,0.0,0.0,,,,,,,,,0.0,training_resp,,9.526244345121086,3.498632732895203,0.0,,left,silver,0.0,244.0,1.0,right,2023_Oct_09_1007,habits_v_MRI,5.0,40.0,1.0,5.0,30.0,15.0,5.0,15.0,30.0,30.0,60.0,RR,60.09620434555325,
20.0,0.0,resp1,stim/left_resp_img.png,"[0.5, 0]",left,stim/silver_coin.png,gold,,,,,training,,,silver,val,,,,,0.0,0.0,0.0,0.0,0.0,0.0,0.0,0.0,,,,,,,,,0.0,training_resp,,10.109722420573236,4.081899670069106,0.0,,left,silver,0.0,244.0,1.0,right,2023_Oct_09_1007,habits_v_MRI,5.0,40.0,1.0,5.0,30.0,15.0,5.0,15.0,30.0,30.0,60.0,RR,60.09620434555325,
20.0,0.0,resp1,stim/left_resp_img.png,"[0.5, 0]",left,stim/silver_coin.png,gold,,,,,training,,,silver,val,,,,,0.0,0.0,0.0,0.0,0.0,0.0,0.0,0.0,,,,,,,,,0.0,training_resp,,10.62619839317631,4.598547485773452,0.0,,left,silver,0.0,244.0,1.0,right,2023_Oct_09_1007,habits_v_MRI,5.0,40.0,1.0,5.0,30.0,15.0,5.0,15.0,30.0,30.0,60.0,RR,60.09620434555325,
20.0,0.0,resp1,stim/left_resp_img.png,"[0.5, 0]",left,stim/silver_coin.png,gold,,,,,training,,,silver,val,,,,,0.0,0.0,0.0,0.0,0.0,0.0,0.0,0.0,,,,,,,,,0.0,training_resp,,11.159406490274703,5.131857339758426,0.0,,left,silver,0.0,244.0,1.0,right,2023_Oct_09_1007,habits_v_MRI,5.0,40.0,1.0,5.0,30.0,15.0,5.0,15.0,30.0,30.0,60.0,RR,60.09620434555325,
20.0,0.0,resp1,stim/left_resp_img.png,"[0.5, 0]",left,stim/silver_coin.png,gold,,,,,training,,,silver,val,,,,,0.0,0.0,0.0,0.0,0.0,0.0,0.0,0.0,,,,,,,,,0.0,training_resp,,11.67617189825978,5.648535066749901,0.0,,left,silver,0.0,244.0,1.0,right,2023_Oct_09_1007,habits_v_MRI,5.0,40.0,1.0,5.0,30.0,15.0,5.0,15.0,30.0,30.0,60.0,RR,60.09620434555325,
20.0,0.0,resp1,stim/left_resp_img.png,"[0.5, 0]",left,stim/silver_coin.png,gold,,,,,training,,,silver,val,,,,,0.0,0.0,0.0,0.0,0.0,0.0,0.0,0.0,,,,,,,,,0.0,training_resp,,12.209342752816156,6.181777473771945,0.0,,left,silver,0.0,244.0,1.0,right,2023_Oct_09_1007,habits_v_MRI,5.0,40.0,1.0,5.0,30.0,15.0,5.0,15.0,30.0,30.0,60.0,RR,60.09620434555325,
20.0,0.0,resp1,stim/left_resp_img.png,"[0.5, 0]",left,stim/silver_coin.png,gold,,,,,training,,,silver,val,,,,,0.0,0.0,0.0,0.0,0.0,0.0,0.0,0.0,,,,,,,,,0.0,training_resp,,13.376028822734952,7.34841984976083,0.0,,left,silver,0.0,244.0,1.0,right,2023_Oct_09_1007,habits_v_MRI,5.0,40.0,1.0,5.0,30.0,15.0,5.0,15.0,30.0,30.0,60.0,RR,60.09620434555325,
20.0,0.0,resp1,stim/left_resp_img.png,"[0.5, 0]",left,stim/silver_coin.png,gold,,,,,training,,,silver,val,,,,,0.0,0.0,0.0,0.0,0.0,0.0,0.0,0.0,,,,,,,,,0.0,training_resp,,14.025999923236668,7.998357813223265,0.0,,left,silver,0.0,244.0,1.0,right,2023_Oct_09_1007,habits_v_MRI,5.0,40.0,1.0,5.0,30.0,15.0,5.0,15.0,30.0,30.0,60.0,RR,60.09620434555325,
20.0,0.0,resp1,stim/left_resp_img.png,"[0.5, 0]",left,stim/silver_coin.png,gold,,,,,training,,,silver,val,,,,,0.0,0.0,0.0,0.0,0.0,0.0,0.0,0.0,,,,,,,,,0.0,training_resp,,16.17595357540995,10.148220851900987,0.0,,left,silver,0.0,244.0,1.0,right,2023_Oct_09_1007,habits_v_MRI,5.0,40.0,1.0,5.0,30.0,15.0,5.0,15.0,30.0,30.0,60.0,RR,60.09620434555325,
20.0,0.0,resp1,stim/left_resp_img.png,"[0.5, 0]",left,stim/silver_coin.png,gold,,,,,training,,,silver,val,,,,,0.0,0.0,0.0,0.0,0.0,0.0,0.0,0.0,,,,,,,,,0.0,training_resp,,17.109090178622864,11.081448068725877,0.0,,left,silver,0.0,244.0,1.0,right,2023_Oct_09_1007,habits_v_MRI,5.0,40.0,1.0,5.0,30.0,15.0,5.0,15.0,30.0,30.0,60.0,RR,60.09620434555325,
20.0,0.0,resp1,stim/left_resp_img.png,"[0.5, 0]",left,stim/silver_coin.png,gold,,,,,training,,,silver,val,,,,,0.0,0.0,0.0,0.0,0.0,0.0,0.0,0.0,,,,,,,,,0.0,training_resp,,17.609084460302256,11.581445576041006,0.0,11.0,left,silver,1.0,244.0,1.0,right,2023_Oct_09_1007,habits_v_MRI,5.0,40.0,1.0,5.0,30.0,15.0,5.0,15.0,30.0,30.0,60.0,RR,60.09620434555325,
20.0,0.0,resp1,stim/left_resp_img.png,"[0.5, 0]",left,stim/silver_coin.png,gold,,,,,training,,,silver,val,,,,,0.0,0.0,0.0,0.0,0.0,0.0,0.0,0.0,,,,,,,,,0.0,training_resp,,19.1090945773758,13.081430767080748,0.0,,left,silver,0.0,244.0,1.0,right,2023_Oct_09_1007,habits_v_MRI,5.0,40.0,1.0,5.0,30.0,15.0,5.0,15.0,30.0,30.0,60.0,RR,60.09620434555325,
20.0,0.0,resp1,stim/left_resp_img.png,"[0.5, 0]",left,stim/silver_coin.png,gold,,,,,training,,,silver,val,,,,,0.0,0.0,0.0,0.0,0.0,0.0,0.0,0.0,,,,,,,,,0.0,training_resp,,19.692272074054927,13.664656942826696,0.0,,left,silver,0.0,244.0,1.0,right,2023_Oct_09_1007,habits_v_MRI,5.0,40.0,1.0,5.0,30.0,15.0,5.0,15.0,30.0,30.0,60.0,RR,60.09620434555325,
20.0,0.0,resp1,stim/left_resp_img.png,"[0.5, 0]",left,stim/silver_coin.png,gold,,,,,training,,,silver,val,,,,,0.0,0.0,0.0,0.0,0.0,0.0,0.0,0.0,,,,,,,,,0.0,training_resp,,20.64225663454272,14.614599275635555,0.0,,left,silver,0.0,244.0,1.0,right,2023_Oct_09_1007,habits_v_MRI,5.0,40.0,1.0,5.0,30.0,15.0,5.0,15.0,30.0,30.0,60.0,RR,60.09620434555325,
20.0,0.0,resp1,stim/left_resp_img.png,"[0.5, 0]",left,stim/silver_coin.png,gold,,,,,training,,,silver,val,,,,,0.0,0.0,0.0,0.0,0.0,0.0,0.0,0.0,,,,,,,,,0.0,training_resp,,21.242184730246663,15.21458631416317,0.0,,left,silver,0.0,244.0,1.0,right,2023_Oct_09_1007,habits_v_MRI,5.0,40.0,1.0,5.0,30.0,15.0,5.0,15.0,30.0,30.0,60.0,RR,60.09620434555325,
20.0,0.0,resp1,stim/left_resp_img.png,"[0.5, 0]",left,stim/silver_coin.png,gold,,,,,training,,,silver,val,,,,,0.0,0.0,0.0,0.0,0.0,0.0,0.0,0.0,,,,,,,,,0.0,training_resp,,22.42565805511549,16.397778121288866,0.0,,left,silver,0.0,244.0,1.0,right,2023_Oct_09_1007,habits_v_MRI,5.0,40.0,1.0,5.0,30.0,15.0,5.0,15.0,30.0,30.0,60.0,RR,60.09620434555325,
20.0,0.0,resp1,stim/left_resp_img.png,"[0.5, 0]",left,stim/silver_coin.png,gold,,,,,training,,,silver,val,,,,,0.0,0.0,0.0,0.0,0.0,0.0,0.0,0.0,,,,,,,,,0.0,training_resp,,22.94212317757774,16.91450130159501,0.0,,left,silver,0.0,244.0,1.0,right,2023_Oct_09_1007,habits_v_MRI,5.0,40.0,1.0,5.0,30.0,15.0,5.0,15.0,30.0,30.0,60.0,RR,60.09620434555325,
20.0,0.0,resp1,stim/left_resp_img.png,"[0.5, 0]",left,stim/silver_coin.png,gold,,,,,training,,,silver,val,,,,,0.0,0.0,0.0,0.0,0.0,0.0,0.0,0.0,,,,,,,,,0.0,training_resp,,23.459062774665654,17.431208353373222,0.0,,left,silver,0.0,244.0,1.0,right,2023_Oct_09_1007,habits_v_MRI,5.0,40.0,1.0,5.0,30.0,15.0,5.0,15.0,30.0,30.0,60.0,RR,60.09620434555325,
20.0,0.0,resp1,stim/left_resp_img.png,"[0.5, 0]",left,stim/silver_coin.png,gold,,,,,training,,,silver,val,,,,,0.0,0.0,0.0,0.0,0.0,0.0,0.0,0.0,,,,,,,,,0.0,training_resp,,23.842141270870343,17.814512357115746,0.0,,left,silver,0.0,244.0,1.0,right,2023_Oct_09_1007,habits_v_MRI,5.0,40.0,1.0,5.0,30.0,15.0,5.0,15.0,30.0,30.0,60.0,RR,60.09620434555325,
20.0,0.0,resp1,stim/left_resp_img.png,"[0.5, 0]",left,stim/silver_coin.png,gold,,,,,training,,,silver,val,,,,,0.0,0.0,0.0,0.0,0.0,0.0,0.0,0.0,,,,,,,,,0.0,training_resp,,24.242111125029624,18.214488076162525,0.0,,left,silver,0.0,244.0,1.0,right,2023_Oct_09_1007,habits_v_MRI,5.0,40.0,1.0,5.0,30.0,15.0,5.0,15.0,30.0,30.0,60.0,RR,60.09620434555325,
20.0,0.0,resp1,stim/left_resp_img.png,"[0.5, 0]",left,stim/silver_coin.png,gold,,,,,training,,,silver,val,,,,,0.0,0.0,0.0,0.0,0.0,0.0,0.0,0.0,,,,,,,,,0.0,training_resp,,24.592112752608955,18.564448062563315,0.0,,left,silver,0.0,244.0,1.0,right,2023_Oct_09_1007,habits_v_MRI,5.0,40.0,1.0,5.0,30.0,15.0,5.0,15.0,30.0,30.0,60.0,RR,60.09620434555325,
20.0,0.0,resp1,stim/left_resp_img.png,"[0.5, 0]",left,stim/silver_coin.png,gold,,,,,training,,,silver,val,,,,,0.0,0.0,0.0,0.0,0.0,0.0,0.0,0.0,,,,,,,,,0.0,training_resp,,24.892131491098556,18.8644360100152,0.0,23.0,left,silver,1.0,244.0,1.0,right,2023_Oct_09_1007,habits_v_MRI,5.0,40.0,1.0,5.0,30.0,15.0,5.0,15.0,30.0,30.0,60.0,RR,60.09620434555325,
20.0,0.0,resp1,stim/left_resp_img.png,"[0.5, 0]",left,stim/silver_coin.png,gold,,,,,training,,,silver,val,,,,,0.0,0.0,0.0,0.0,0.0,0.0,0.0,0.0,,,,,,,,,0.0,training_resp,,25.742160830530334,19.71433602727484,0.0,,left,silver,0.0,244.0,1.0,right,2023_Oct_09_1007,habits_v_MRI,5.0,40.0,1.0,5.0,30.0,15.0,5.0,15.0,30.0,30.0,60.0,RR,60.09620434555325,
20.0,0.0,resp1,stim/left_resp_img.png,"[0.5, 0]",left,stim/silver_coin.png,gold,,,,,training,,,silver,val,,,,,0.0,0.0,0.0,0.0,0.0,0.0,0.0,0.0,,,,,,,,,0.0,training_resp,,26.42529530776665,20.397674604784697,0.0,,left,silver,0.0,244.0,1.0,right,2023_Oct_09_1007,habits_v_MRI,5.0,40.0,1.0,5.0,30.0,15.0,5.0,15.0,30.0,30.0,60.0,RR,60.09620434555325,
20.0,0.0,resp1,stim/left_resp_img.png,"[0.5, 0]",left,stim/silver_coin.png,gold,,,,,training,,,silver,val,,,,,0.0,0.0,0.0,0.0,0.0,0.0,0.0,0.0,,,,,,,,,0.0,training_resp,,27.12523199559655,21.097594284336083,0.0,,left,silver,0.0,244.0,1.0,right,2023_Oct_09_1007,habits_v_MRI,5.0,40.0,1.0,5.0,30.0,15.0,5.0,15.0,30.0,30.0,60.0,RR,60.09620434555325,
20.0,0.0,resp1,stim/left_resp_img.png,"[0.5, 0]",left,stim/silver_coin.png,gold,,,,,training,,,silver,val,,,,,0.0,0.0,0.0,0.0,0.0,0.0,0.0,0.0,,,,,,,,,0.0,training_resp,,27.55843941809144,21.5308383628726,0.0,,left,silver,0.0,244.0,1.0,right,2023_Oct_09_1007,habits_v_MRI,5.0,40.0,1.0,5.0,30.0,15.0,5.0,15.0,30.0,30.0,60.0,RR,60.09620434555325,
20.0,0.0,resp1,stim/left_resp_img.png,"[0.5, 0]",left,stim/silver_coin.png,gold,,,,,training,,,silver,val,,,,,0.0,0.0,0.0,0.0,0.0,0.0,0.0,0.0,,,,,,,,,0.0,training_resp,,27.942147810361348,21.914244123501703,0.0,,left,silver,0.0,244.0,1.0,right,2023_Oct_09_1007,habits_v_MRI,5.0,40.0,1.0,5.0,30.0,15.0,5.0,15.0,30.0,30.0,60.0,RR,60.09620434555325,
20.0,0.0,resp1,stim/left_resp_img.png,"[0.5, 0]",left,stim/silver_coin.png,gold,,,,,training,,,silver,val,,,,,0.0,0.0,0.0,0.0,0.0,0.0,0.0,0.0,,,,,,,,,0.0,training_resp,,28.45840824593324,22.430841793771837,0.0,,left,silver,0.0,244.0,1.0,right,2023_Oct_09_1007,habits_v_MRI,5.0,40.0,1.0,5.0,30.0,15.0,5.0,15.0,30.0,30.0,60.0,RR,60.09620434555325,
20.0,0.0,resp1,stim/left_resp_img.png,"[0.5, 0]",left,stim/silver_coin.png,gold,,,,,training,,,silver,val,,,,,0.0,0.0,0.0,0.0,0.0,0.0,0.0,0.0,,,,,,,,,0.0,training_resp,,28.875106412218884,22.847499785246328,0.0,,left,silver,0.0,244.0,1.0,right,2023_Oct_09_1007,habits_v_MRI,5.0,40.0,1.0,5.0,30.0,15.0,5.0,15.0,30.0,30.0,60.0,RR,60.09620434555325,
20.0,0.0,resp1,stim/left_resp_img.png,"[0.5, 0]",left,stim/silver_coin.png,gold,,,,,training,,,silver,val,,,,,0.0,0.0,0.0,0.0,0.0,0.0,0.0,0.0,,,,,,,,,0.0,training_resp,,29.27514429984149,23.247477850294672,0.0,,left,silver,0.0,244.0,1.0,right,2023_Oct_09_1007,habits_v_MRI,5.0,40.0,1.0,5.0,30.0,15.0,5.0,15.0,30.0,30.0,60.0,RR,60.09620434555325,
20.0,0.0,resp1,stim/left_resp_img.png,"[0.5, 0]",left,stim/silver_coin.png,gold,,,,,training,,,silver,val,,,,,0.0,0.0,0.0,0.0,0.0,0.0,0.0,0.0,,,,,,,,,0.0,training_resp,,29.67509597260505,23.64743392181117,0.0,,left,silver,0.0,244.0,1.0,right,2023_Oct_09_1007,habits_v_MRI,5.0,40.0,1.0,5.0,30.0,15.0,5.0,15.0,30.0,30.0,60.0,RR,60.09620434555325,
20.0,0.0,resp1,stim/left_resp_img.png,"[0.5, 0]",left,stim/silver_coin.png,gold,,,,,training,,,silver,val,,,,,0.0,0.0,0.0,0.0,0.0,0.0,0.0,0.0,,,,,,,,,0.0,training_resp,,30.491695959703065,24.46404857130256,0.0,,left,silver,0.0,244.0,1.0,right,2023_Oct_09_1007,habits_v_MRI,5.0,40.0,1.0,5.0,30.0,15.0,5.0,15.0,30.0,30.0,60.0,RR,60.09620434555325,
20.0,0.0,resp1,stim/left_resp_img.png,"[0.5, 0]",left,stim/silver_coin.png,gold,,,,,training,,,silver,val,,,,,0.0,0.0,0.0,0.0,0.0,0.0,0.0,0.0,,,,,,,,,0.0,training_resp,,31.07500659080688,25.047369466046803,0.0,,left,silver,0.0,244.0,1.0,right,2023_Oct_09_1007,habits_v_MRI,5.0,40.0,1.0,5.0,30.0,15.0,5.0,15.0,30.0,30.0,60.0,RR,60.09620434555325,
20.0,0.0,resp1,stim/left_resp_img.png,"[0.5, 0]",left,stim/silver_coin.png,gold,,,,,training,,,silver,val,,,,,0.0,0.0,0.0,0.0,0.0,0.0,0.0,0.0,,,,,,,,,0.0,training_resp,,31.474975858349357,25.447280377382413,0.0,,left,silver,0.0,244.0,1.0,right,2023_Oct_09_1007,habits_v_MRI,5.0,40.0,1.0,5.0,30.0,15.0,5.0,15.0,30.0,30.0,60.0,RR,60.09620434555325,
20.0,0.0,resp1,stim/left_resp_img.png,"[0.5, 0]",left,stim/silver_coin.png,gold,,,,,training,,,silver,val,,,,,0.0,0.0,0.0,0.0,0.0,0.0,0.0,0.0,,,,,,,,,0.0,training_resp,,31.92506848066114,25.89724719640799,0.0,,left,silver,0.0,244.0,1.0,right,2023_Oct_09_1007,habits_v_MRI,5.0,40.0,1.0,5.0,30.0,15.0,5.0,15.0,30.0,30.0,60.0,RR,60.09620434555325,
20.0,0.0,resp1,stim/left_resp_img.png,"[0.5, 0]",left,stim/silver_coin.png,gold,,,,,training,,,silver,val,,,,,0.0,0.0,0.0,0.0,0.0,0.0,0.0,0.0,,,,,,,,,0.0,training_resp,,32.691580302780494,26.663909161346965,0.0,,left,silver,0.0,244.0,1.0,right,2023_Oct_09_1007,habits_v_MRI,5.0,40.0,1.0,5.0,30.0,15.0,5.0,15.0,30.0,30.0,60.0,RR,60.09620434555325,
20.0,0.0,resp1,stim/left_resp_img.png,"[0.5, 0]",left,stim/silver_coin.png,gold,,,,,training,,,silver,val,,,,,0.0,0.0,0.0,0.0,0.0,0.0,0.0,0.0,,,,,,,,,0.0,training_resp,,33.191580156213604,27.163882035878487,0.0,,left,silver,0.0,244.0,1.0,right,2023_Oct_09_1007,habits_v_MRI,5.0,40.0,1.0,5.0,30.0,15.0,5.0,15.0,30.0,30.0,60.0,RR,60.09620434555325,
20.0,0.0,resp1,stim/left_resp_img.png,"[0.5, 0]",left,stim/silver_coin.png,gold,,,,,training,,,silver,val,,,,,0.0,0.0,0.0,0.0,0.0,0.0,0.0,0.0,,,,,,,,,0.0,training_resp,,33.60853608720936,27.58055205049459,0.0,,left,silver,0.0,244.0,1.0,right,2023_Oct_09_1007,habits_v_MRI,5.0,40.0,1.0,5.0,30.0,15.0,5.0,15.0,30.0,30.0,60.0,RR,60.09620434555325,
20.0,0.0,resp1,stim/left_resp_img.png,"[0.5, 0]",left,stim/silver_coin.png,gold,,,,,training,,,silver,val,,,,,0.0,0.0,0.0,0.0,0.0,0.0,0.0,0.0,,,,,,,,,0.0,training_resp,,34.024795555043966,27.99719508632552,0.0,,left,silver,0.0,244.0,1.0,right,2023_Oct_09_1007,habits_v_MRI,5.0,40.0,1.0,5.0,30.0,15.0,5.0,15.0,30.0,30.0,60.0,RR,60.09620434555325,
20.0,0.0,resp1,stim/left_resp_img.png,"[0.5, 0]",left,stim/silver_coin.png,gold,,,,,training,,,silver,val,,,,,0.0,0.0,0.0,0.0,0.0,0.0,0.0,0.0,,,,,,,,,0.0,training_resp,,34.42479590699077,28.3971831217641,0.0,,left,silver,0.0,244.0,1.0,right,2023_Oct_09_1007,habits_v_MRI,5.0,40.0,1.0,5.0,30.0,15.0,5.0,15.0,30.0,30.0,60.0,RR,60.09620434555325,
20.0,0.0,resp1,stim/left_resp_img.png,"[0.5, 0]",left,stim/silver_coin.png,gold,,,,,training,,,silver,val,,,,,0.0,0.0,0.0,0.0,0.0,0.0,0.0,0.0,,,,,,,,,0.0,training_resp,,34.841442754957825,28.81375929713249,0.0,,left,silver,0.0,244.0,1.0,right,2023_Oct_09_1007,habits_v_MRI,5.0,40.0,1.0,5.0,30.0,15.0,5.0,15.0,30.0,30.0,60.0,RR,60.09620434555325,
20.0,0.0,resp1,stim/left_resp_img.png,"[0.5, 0]",left,stim/silver_coin.png,gold,,,,,training,,,silver,val,,,,,0.0,0.0,0.0,0.0,0.0,0.0,0.0,0.0,,,,,,,,,0.0,training_resp,,35.258181096287444,29.230458929669112,0.0,,left,silver,0.0,244.0,1.0,right,2023_Oct_09_1007,habits_v_MRI,5.0,40.0,1.0,5.0,30.0,15.0,5.0,15.0,30.0,30.0,60.0,RR,60.09620434555325,
20.0,0.0,resp1,stim/left_resp_img.png,"[0.5, 0]",left,stim/silver_coin.png,gold,,,,,training,,,silver,val,,,,,0.0,0.0,0.0,0.0,0.0,0.0,0.0,0.0,,,,,,,,,0.0,training_resp,,35.60805369482841,29.58043035271112,0.0,,left,silver,0.0,244.0,1.0,right,2023_Oct_09_1007,habits_v_MRI,5.0,40.0,1.0,5.0,30.0,15.0,5.0,15.0,30.0,30.0,60.0,RR,60.09620434555325,
20.0,0.0,resp1,stim/left_resp_img.png,"[0.5, 0]",left,stim/silver_coin.png,gold,,,,,training,,,silver,val,,,,,0.0,0.0,0.0,0.0,0.0,0.0,0.0,0.0,,,,,,,,,0.0,training_resp,,35.94131322752219,29.913704254548065,0.0,,left,silver,0.0,244.0,1.0,right,2023_Oct_09_1007,habits_v_MRI,5.0,40.0,1.0,5.0,30.0,15.0,5.0,15.0,30.0,30.0,60.0,RR,60.09620434555325,
20.0,0.0,resp1,stim/left_resp_img.png,"[0.5, 0]",left,stim/silver_coin.png,gold,,,,,training,,,silver,val,,,,,0.0,0.0,0.0,0.0,0.0,0.0,0.0,0.0,,,,,,,,,0.0,training_resp,,36.64130768517498,30.6136638156604,0.0,16.0,left,silver,1.0,244.0,1.0,right,2023_Oct_09_1007,habits_v_MRI,5.0,40.0,1.0,5.0,30.0,15.0,5.0,15.0,30.0,30.0,60.0,RR,60.09620434555325,
20.0,0.0,resp1,stim/left_resp_img.png,"[0.5, 0]",left,stim/silver_coin.png,gold,,,,,training,,,silver,val,,,,,0.0,0.0,0.0,0.0,0.0,0.0,0.0,0.0,,,,,,,,,0.0,training_resp,,38.441247393377125,32.413632555515505,0.0,,left,silver,0.0,244.0,1.0,right,2023_Oct_09_1007,habits_v_MRI,5.0,40.0,1.0,5.0,30.0,15.0,5.0,15.0,30.0,30.0,60.0,RR,60.09620434555325,
20.0,0.0,resp1,stim/left_resp_img.png,"[0.5, 0]",left,stim/silver_coin.png,gold,,,,,training,,,silver,val,,,,,0.0,0.0,0.0,0.0,0.0,0.0,0.0,0.0,,,,,,,,,0.0,training_resp,,39.15789039991796,33.13024477090221,0.0,,left,silver,0.0,244.0,1.0,right,2023_Oct_09_1007,habits_v_MRI,5.0,40.0,1.0,5.0,30.0,15.0,5.0,15.0,30.0,30.0,60.0,RR,60.09620434555325,
20.0,0.0,resp1,stim/left_resp_img.png,"[0.5, 0]",left,stim/silver_coin.png,gold,,,,,training,,,silver,val,,,,,0.0,0.0,0.0,0.0,0.0,0.0,0.0,0.0,,,,,,,,,0.0,training_resp,,39.907832850003615,33.880205109133385,0.0,,left,silver,0.0,244.0,1.0,right,2023_Oct_09_1007,habits_v_MRI,5.0,40.0,1.0,5.0,30.0,15.0,5.0,15.0,30.0,30.0,60.0,RR,60.09620434555325,
20.0,0.0,resp1,stim/left_resp_img.png,"[0.5, 0]",left,stim/silver_coin.png,gold,,,,,training,,,silver,val,,,,,0.0,0.0,0.0,0.0,0.0,0.0,0.0,0.0,,,,,,,,,0.0,training_resp,,40.60787950572558,34.58018813014496,0.0,,left,silver,0.0,244.0,1.0,right,2023_Oct_09_1007,habits_v_MRI,5.0,40.0,1.0,5.0,30.0,15.0,5.0,15.0,30.0,30.0,60.0,RR,60.09620434555325,
20.0,0.0,resp1,stim/left_resp_img.png,"[0.5, 0]",left,stim/silver_coin.png,gold,,,,,training,,,silver,val,,,,,0.0,0.0,0.0,0.0,0.0,0.0,0.0,0.0,,,,,,,,,0.0,training_resp,,41.291113100596704,35.263444598414935,0.0,,left,silver,0.0,244.0,1.0,right,2023_Oct_09_1007,habits_v_MRI,5.0,40.0,1.0,5.0,30.0,15.0,5.0,15.0,30.0,30.0,60.0,RR,60.09620434555325,
20.0,0.0,resp1,stim/left_resp_img.png,"[0.5, 0]",left,stim/silver_coin.png,gold,,,,,training,,,silver,val,,,,,0.0,0.0,0.0,0.0,0.0,0.0,0.0,0.0,,,,,,,,,0.0,training_resp,,41.74105587333906,35.713420214829966,0.0,,left,silver,0.0,244.0,1.0,right,2023_Oct_09_1007,habits_v_MRI,5.0,40.0,1.0,5.0,30.0,15.0,5.0,15.0,30.0,30.0,60.0,RR,60.09620434555325,
20.0,0.0,resp1,stim/left_resp_img.png,"[0.5, 0]",left,stim/silver_coin.png,gold,,,,,training,,,silver,val,,,,,0.0,0.0,0.0,0.0,0.0,0.0,0.0,0.0,,,,,,,,,0.0,training_resp,,42.09109972859733,36.06341245840304,0.0,,left,silver,0.0,244.0,1.0,right,2023_Oct_09_1007,habits_v_MRI,5.0,40.0,1.0,5.0,30.0,15.0,5.0,15.0,30.0,30.0,60.0,RR,60.09620434555325,
20.0,0.0,resp1,stim/left_resp_img.png,"[0.5, 0]",left,stim/silver_coin.png,gold,,,,,training,,,silver,val,,,,,0.0,0.0,0.0,0.0,0.0,0.0,0.0,0.0,,,,,,,,,0.0,training_resp,,42.44105150399264,36.4134369592648,0.0,,left,silver,0.0,244.0,1.0,right,2023_Oct_09_1007,habits_v_MRI,5.0,40.0,1.0,5.0,30.0,15.0,5.0,15.0,30.0,30.0,60.0,RR,60.09620434555325,
20.0,0.0,resp1,stim/left_resp_img.png,"[0.5, 0]",left,stim/silver_coin.png,gold,,,,,training,,,silver,val,,,,,0.0,0.0,0.0,0.0,0.0,0.0,0.0,0.0,,,,,,,,,0.0,training_resp,,42.8242962716613,36.79668905818835,0.0,,left,silver,0.0,244.0,1.0,right,2023_Oct_09_1007,habits_v_MRI,5.0,40.0,1.0,5.0,30.0,15.0,5.0,15.0,30.0,30.0,60.0,RR,60.09620434555325,
20.0,0.0,resp1,stim/left_resp_img.png,"[0.5, 0]",left,stim/silver_coin.png,gold,,,,,training,,,silver,val,,,,,0.0,0.0,0.0,0.0,0.0,0.0,0.0,0.0,,,,,,,,,0.0,training_resp,,43.407503093010746,37.37991640693508,0.0,,left,silver,0.0,244.0,1.0,right,2023_Oct_09_1007,habits_v_MRI,5.0,40.0,1.0,5.0,30.0,15.0,5.0,15.0,30.0,30.0,60.0,RR,60.09620434555325,
20.0,0.0,resp1,stim/left_resp_img.png,"[0.5, 0]",left,stim/silver_coin.png,gold,,,,,training,,,silver,val,,,,,0.0,0.0,0.0,0.0,0.0,0.0,0.0,0.0,,,,,,,,,0.0,training_resp,,43.87429059727583,37.84665112651419,0.0,,left,silver,0.0,244.0,1.0,right,2023_Oct_09_1007,habits_v_MRI,5.0,40.0,1.0,5.0,30.0,15.0,5.0,15.0,30.0,30.0,60.0,RR,60.09620434555325,
20.0,0.0,resp1,stim/left_resp_img.png,"[0.5, 0]",left,stim/silver_coin.png,gold,,,,,training,,,silver,val,,,,,0.0,0.0,0.0,0.0,0.0,0.0,0.0,0.0,,,,,,,,,0.0,training_resp,,44.224283134099096,38.19663633219898,0.0,,left,silver,0.0,244.0,1.0,right,2023_Oct_09_1007,habits_v_MRI,5.0,40.0,1.0,5.0,30.0,15.0,5.0,15.0,30.0,30.0,60.0,RR,60.09620434555325,
20.0,0.0,resp1,stim/left_resp_img.png,"[0.5, 0]",left,stim/silver_coin.png,gold,,,,,training,,,silver,val,,,,,0.0,0.0,0.0,0.0,0.0,0.0,0.0,0.0,,,,,,,,,0.0,training_resp,,44.8081051891204,38.77982819802128,0.0,,left,silver,0.0,244.0,1.0,right,2023_Oct_09_1007,habits_v_MRI,5.0,40.0,1.0,5.0,30.0,15.0,5.0,15.0,30.0,30.0,60.0,RR,60.09620434555325,
20.0,0.0,resp1,stim/left_resp_img.png,"[0.5, 0]",left,stim/silver_coin.png,gold,,,,,training,,,silver,val,,,,,0.0,0.0,0.0,0.0,0.0,0.0,0.0,0.0,,,,,,,,,0.0,training_resp,,45.32425301766489,39.29658656811807,0.0,,left,silver,0.0,244.0,1.0,right,2023_Oct_09_1007,habits_v_MRI,5.0,40.0,1.0,5.0,30.0,15.0,5.0,15.0,30.0,30.0,60.0,RR,60.09620434555325,
20.0,0.0,resp1,stim/left_resp_img.png,"[0.5, 0]",left,stim/silver_coin.png,gold,,,,,training,,,silver,val,,,,,0.0,0.0,0.0,0.0,0.0,0.0,0.0,0.0,,,,,,,,,0.0,training_resp,,45.82419070252217,39.796513402834535,0.0,,left,silver,0.0,244.0,1.0,right,2023_Oct_09_1007,habits_v_MRI,5.0,40.0,1.0,5.0,30.0,15.0,5.0,15.0,30.0,30.0,60.0,RR,60.09620434555325,
20.0,0.0,resp1,stim/left_resp_img.png,"[0.5, 0]",left,stim/silver_coin.png,gold,,,,,training,,,silver,val,,,,,0.0,0.0,0.0,0.0,0.0,0.0,0.0,0.0,,,,,,,,,0.0,training_resp,,46.19083442736883,40.16316035343334,0.0,8.0,left,silver,1.0,244.0,1.0,right,2023_Oct_09_1007,habits_v_MRI,5.0,40.0,1.0,5.0,30.0,15.0,5.0,15.0,30.0,30.0,60.0,RR,60.09620434555325,
20.0,0.0,resp1,stim/left_resp_img.png,"[0.5, 0]",left,stim/silver_coin.png,gold,,,,,training,,,silver,val,,,,,0.0,0.0,0.0,0.0,0.0,0.0,0.0,0.0,,,,,,,,,0.0,training_resp,,46.724065397749655,40.69644557463471,0.0,,left,silver,0.0,244.0,1.0,right,2023_Oct_09_1007,habits_v_MRI,5.0,40.0,1.0,5.0,30.0,15.0,5.0,15.0,30.0,30.0,60.0,RR,60.09620434555325,
20.0,0.0,resp1,stim/left_resp_img.png,"[0.5, 0]",left,stim/silver_coin.png,gold,,,,,training,,,silver,val,,,,,0.0,0.0,0.0,0.0,0.0,0.0,0.0,0.0,,,,,,,,,0.0,training_resp,,47.47405124851503,41.44641236437019,0.0,,left,silver,0.0,244.0,1.0,right,2023_Oct_09_1007,habits_v_MRI,5.0,40.0,1.0,5.0,30.0,15.0,5.0,15.0,30.0,30.0,60.0,RR,60.09620434555325,
20.0,0.0,resp1,stim/left_resp_img.png,"[0.5, 0]",left,stim/silver_coin.png,gold,,,,,training,,,silver,val,,,,,0.0,0.0,0.0,0.0,0.0,0.0,0.0,0.0,,,,,,,,,0.0,training_resp,,48.80733277485706,42.77964931691531,0.0,,left,silver,0.0,244.0,1.0,right,2023_Oct_09_1007,habits_v_MRI,5.0,40.0,1.0,5.0,30.0,15.0,5.0,15.0,30.0,30.0,60.0,RR,60.09620434555325,
20.0,0.0,resp1,stim/left_resp_img.png,"[0.5, 0]",left,stim/silver_coin.png,gold,,,,,training,,,silver,val,,,,,0.0,0.0,0.0,0.0,0.0,0.0,0.0,0.0,,,,,,,,,0.0,training_resp,,49.69056947820354,43.66292179643642,0.0,,left,silver,0.0,244.0,1.0,right,2023_Oct_09_1007,habits_v_MRI,5.0,40.0,1.0,5.0,30.0,15.0,5.0,15.0,30.0,30.0,60.0,RR,60.09620434555325,
20.0,0.0,resp1,stim/left_resp_img.png,"[0.5, 0]",left,stim/silver_coin.png,gold,,,,,training,,,silver,val,,,,,0.0,0.0,0.0,0.0,0.0,0.0,0.0,0.0,,,,,,,,,0.0,training_resp,,50.39054106245749,44.36292123934254,0.0,,left,silver,0.0,244.0,1.0,right,2023_Oct_09_1007,habits_v_MRI,5.0,40.0,1.0,5.0,30.0,15.0,5.0,15.0,30.0,30.0,60.0,RR,60.09620434555325,
20.0,0.0,resp1,stim/left_resp_img.png,"[0.5, 0]",left,stim/silver_coin.png,gold,,,,,training,,,silver,val,,,,,0.0,0.0,0.0,0.0,0.0,0.0,0.0,0.0,,,,,,,,,0.0,training_resp,,52.20713225204963,46.17946316336747,0.0,,left,silver,0.0,244.0,1.0,right,2023_Oct_09_1007,habits_v_MRI,5.0,40.0,1.0,5.0,30.0,15.0,5.0,15.0,30.0,30.0,60.0,RR,60.09620434555325,
20.0,0.0,resp1,stim/left_resp_img.png,"[0.5, 0]",left,stim/silver_coin.png,gold,,,,,training,,,silver,val,,,,,0.0,0.0,0.0,0.0,0.0,0.0,0.0,0.0,,,,,,,,,0.0,training_resp,,53.37384002225008,47.34609117021319,0.0,,left,silver,0.0,244.0,1.0,right,2023_Oct_09_1007,habits_v_MRI,5.0,40.0,1.0,5.0,30.0,15.0,5.0,15.0,30.0,30.0,60.0,RR,60.09620434555325,
20.0,0.0,resp1,stim/left_resp_img.png,"[0.5, 0]",left,stim/silver_coin.png,gold,,,,,training,,,silver,val,,,,,0.0,0.0,0.0,0.0,0.0,0.0,0.0,0.0,,,,,,,,,0.0,training_resp,,54.52366347250063,48.49600670021027,0.0,8.0,left,silver,1.0,244.0,1.0,right,2023_Oct_09_1007,habits_v_MRI,5.0,40.0,1.0,5.0,30.0,15.0,5.0,15.0,30.0,30.0,60.0,RR,60.09620434555325,
20.0,0.0,resp1,stim/left_resp_img.png,"[0.5, 0]",left,stim/silver_coin.png,gold,,,,,training,,,silver,val,,,,,0.0,0.0,0.0,0.0,0.0,0.0,0.0,0.0,,,,,,,,,0.0,training_resp,,55.75637601036578,49.72889430681244,0.0,,left,silver,0.0,244.0,1.0,right,2023_Oct_09_1007,habits_v_MRI,5.0,40.0,1.0,5.0,30.0,15.0,5.0,15.0,30.0,30.0,60.0,RR,60.09620434555325,
20.0,0.0,resp1,stim/left_resp_img.png,"[0.5, 0]",left,stim/silver_coin.png,gold,,,,,training,,,silver,val,,,,,0.0,0.0,0.0,0.0,0.0,0.0,0.0,0.0,,,,,,,,,0.0,training_resp,,56.923465295811184,50.89578242436983,0.0,,left,silver,0.0,244.0,1.0,right,2023_Oct_09_1007,habits_v_MRI,5.0,40.0,1.0,5.0,30.0,15.0,5.0,15.0,30.0,30.0,60.0,RR,60.09620434555325,
20.0,0.0,resp1,stim/left_resp_img.png,"[0.5, 0]",left,stim/silver_coin.png,gold,,,,,training,,,silver,val,,,,,0.0,0.0,0.0,0.0,0.0,0.0,0.0,0.0,,,,,,,,,0.0,training_resp,,58.14011929905973,52.1124601806514,0.0,,left,silver,0.0,244.0,1.0,right,2023_Oct_09_1007,habits_v_MRI,5.0,40.0,1.0,5.0,30.0,15.0,5.0,15.0,30.0,30.0,60.0,RR,60.09620434555325,
20.0,0.0,resp1,stim/left_resp_img.png,"[0.5, 0]",left,stim/silver_coin.png,gold,,,,,training,,,silver,val,,,,,0.0,0.0,0.0,0.0,0.0,0.0,0.0,0.0,,,,,,,,,0.0,ITI_start,21.666666666666668,58.24121261422988,52.21248020953499,,,,,,244.0,1.0,right,2023_Oct_09_1007,habits_v_MRI,5.0,40.0,1.0,5.0,30.0,15.0,5.0,15.0,30.0,30.0,60.0,RR,60.09620434555325,
20.0,1.0,resp2,stim/right_resp_img.png,"[-0.5, 0]",right,stim/gold_coin.png,gold,,,,,training,,,gold,deval,,,,,0.0,0.0,0.0,0.0,0.0,1.0,1.0,1.0,,,,,,,,,0.0,training_period_start,37.5,79.94303107226733,0.0,1.0,20.0,,,,244.0,1.0,right,2023_Oct_09_1007,habits_v_MRI,5.0,40.0,1.0,5.0,30.0,15.0,5.0,15.0,30.0,30.0,60.0,RR,60.09620434555325,
20.0,1.0,resp2,stim/right_resp_img.png,"[-0.5, 0]",right,stim/gold_coin.png,gold,,,,,training,,,gold,deval,,,,,0.0,0.0,0.0,0.0,0.0,1.0,1.0,1.0,,,,,,,,,0.0,training_resp,,82.05512293381616,2.131228030193597,1.0,,right,gold,0.0,244.0,1.0,right,2023_Oct_09_1007,habits_v_MRI,5.0,40.0,1.0,5.0,30.0,15.0,5.0,15.0,30.0,30.0,60.0,RR,60.09620434555325,
20.0,1.0,resp2,stim/right_resp_img.png,"[-0.5, 0]",right,stim/gold_coin.png,gold,,,,,training,,,gold,deval,,,,,0.0,0.0,0.0,0.0,0.0,1.0,1.0,1.0,,,,,,,,,0.0,training_resp,,82.68832701339852,2.764516565133817,1.0,,right,gold,0.0,244.0,1.0,right,2023_Oct_09_1007,habits_v_MRI,5.0,40.0,1.0,5.0,30.0,15.0,5.0,15.0,30.0,30.0,60.0,RR,60.09620434555325,
20.0,1.0,resp2,stim/right_resp_img.png,"[-0.5, 0]",right,stim/gold_coin.png,gold,,,,,training,,,gold,deval,,,,,0.0,0.0,0.0,0.0,0.0,1.0,1.0,1.0,,,,,,,,,0.0,training_resp,,83.23823732358869,3.314441830967553,1.0,,right,gold,0.0,244.0,1.0,right,2023_Oct_09_1007,habits_v_MRI,5.0,40.0,1.0,5.0,30.0,15.0,5.0,15.0,30.0,30.0,60.0,RR,60.09620434555325,
20.0,1.0,resp2,stim/right_resp_img.png,"[-0.5, 0]",right,stim/gold_coin.png,gold,,,,,training,,,gold,deval,,,,,0.0,0.0,0.0,0.0,0.0,1.0,1.0,1.0,,,,,,,,,0.0,training_resp,,83.83821967011318,3.914522415376268,1.0,,right,gold,0.0,244.0,1.0,right,2023_Oct_09_1007,habits_v_MRI,5.0,40.0,1.0,5.0,30.0,15.0,5.0,15.0,30.0,30.0,60.0,RR,60.09620434555325,
20.0,1.0,resp2,stim/right_resp_img.png,"[-0.5, 0]",right,stim/gold_coin.png,gold,,,,,training,,,gold,deval,,,,,0.0,0.0,0.0,0.0,0.0,1.0,1.0,1.0,,,,,,,,,0.0,training_resp,,84.3049285839079,4.381126933149062,1.0,,right,gold,0.0,244.0,1.0,right,2023_Oct_09_1007,habits_v_MRI,5.0,40.0,1.0,5.0,30.0,15.0,5.0,15.0,30.0,30.0,60.0,RR,60.09620434555325,
20.0,1.0,resp2,stim/right_resp_img.png,"[-0.5, 0]",right,stim/gold_coin.png,gold,,,,,training,,,gold,deval,,,,,0.0,0.0,0.0,0.0,0.0,1.0,1.0,1.0,,,,,,,,,0.0,training_resp,,88.37143949698657,8.447569519514218,1.0,,right,gold,0.0,244.0,1.0,right,2023_Oct_09_1007,habits_v_MRI,5.0,40.0,1.0,5.0,30.0,15.0,5.0,15.0,30.0,30.0,60.0,RR,60.09620434555325,
20.0,1.0,resp2,stim/right_resp_img.png,"[-0.5, 0]",right,stim/gold_coin.png,gold,,,,,training,,,gold,deval,,,,,0.0,0.0,0.0,0.0,0.0,1.0,1.0,1.0,,,,,,,,,0.0,training_resp,,88.95462227216922,9.03084290807601,1.0,,right,gold,0.0,244.0,1.0,right,2023_Oct_09_1007,habits_v_MRI,5.0,40.0,1.0,5.0,30.0,15.0,5.0,15.0,30.0,30.0,60.0,RR,60.09620434555325,
20.0,1.0,resp2,stim/right_resp_img.png,"[-0.5, 0]",right,stim/gold_coin.png,gold,,,,,training,,,gold,deval,,,,,0.0,0.0,0.0,0.0,0.0,1.0,1.0,1.0,,,,,,,,,0.0,training_resp,,89.50480119721033,9.580765534657983,1.0,,right,gold,0.0,244.0,1.0,right,2023_Oct_09_1007,habits_v_MRI,5.0,40.0,1.0,5.0,30.0,15.0,5.0,15.0,30.0,30.0,60.0,RR,60.09620434555325,
20.0,1.0,resp2,stim/right_resp_img.png,"[-0.5, 0]",right,stim/gold_coin.png,gold,,,,,training,,,gold,deval,,,,,0.0,0.0,0.0,0.0,0.0,1.0,1.0,1.0,,,,,,,,,0.0,training_resp,,90.25459585047793,10.33076898031868,1.0,,right,gold,0.0,244.0,1.0,right,2023_Oct_09_1007,habits_v_MRI,5.0,40.0,1.0,5.0,30.0,15.0,5.0,15.0,30.0,30.0,60.0,RR,60.09620434555325,
20.0,1.0,resp2,stim/right_resp_img.png,"[-0.5, 0]",right,stim/gold_coin.png,gold,,,,,training,,,gold,deval,,,,,0.0,0.0,0.0,0.0,0.0,1.0,1.0,1.0,,,,,,,,,0.0,training_resp,,91.03798378165811,11.114185063284822,1.0,,right,gold,0.0,244.0,1.0,right,2023_Oct_09_1007,habits_v_MRI,5.0,40.0,1.0,5.0,30.0,15.0,5.0,15.0,30.0,30.0,60.0,RR,60.09620434555325,
20.0,1.0,resp2,stim/right_resp_img.png,"[-0.5, 0]",right,stim/gold_coin.png,gold,,,,,training,,,gold,deval,,,,,0.0,0.0,0.0,0.0,0.0,1.0,1.0,1.0,,,,,,,,,0.0,training_resp,,91.87140445387922,11.947340346407143,1.0,,right,gold,0.0,244.0,1.0,right,2023_Oct_09_1007,habits_v_MRI,5.0,40.0,1.0,5.0,30.0,15.0,5.0,15.0,30.0,30.0,60.0,RR,60.09620434555325,
20.0,1.0,resp2,stim/right_resp_img.png,"[-0.5, 0]",right,stim/gold_coin.png,gold,,,,,training,,,gold,deval,,,,,0.0,0.0,0.0,0.0,0.0,1.0,1.0,1.0,,,,,,,,,0.0,training_resp,,92.67105502006598,12.74721876590047,1.0,,right,gold,0.0,244.0,1.0,right,2023_Oct_09_1007,habits_v_MRI,5.0,40.0,1.0,5.0,30.0,15.0,5.0,15.0,30.0,30.0,60.0,RR,60.09620434555325,
20.0,1.0,resp2,stim/right_resp_img.png,"[-0.5, 0]",right,stim/gold_coin.png,gold,,,,,training,,,gold,deval,,,,,0.0,0.0,0.0,0.0,0.0,1.0,1.0,1.0,,,,,,,,,0.0,training_resp,,93.721095385612,13.797224528272636,1.0,,right,gold,0.0,244.0,1.0,right,2023_Oct_09_1007,habits_v_MRI,5.0,40.0,1.0,5.0,30.0,15.0,5.0,15.0,30.0,30.0,60.0,RR,60.09620434555325,
20.0,1.0,resp2,stim/right_resp_img.png,"[-0.5, 0]",right,stim/gold_coin.png,gold,,,,,training,,,gold,deval,,,,,0.0,0.0,0.0,0.0,0.0,1.0,1.0,1.0,,,,,,,,,0.0,training_resp,,94.5877864699578,14.66390710847918,1.0,,right,gold,0.0,244.0,1.0,right,2023_Oct_09_1007,habits_v_MRI,5.0,40.0,1.0,5.0,30.0,15.0,5.0,15.0,30.0,30.0,60.0,RR,60.09620434555325,
20.0,1.0,resp2,stim/right_resp_img.png,"[-0.5, 0]",right,stim/gold_coin.png,gold,,,,,training,,,gold,deval,,,,,0.0,0.0,0.0,0.0,0.0,1.0,1.0,1.0,,,,,,,,,0.0,training_resp,,95.55432808608748,15.630496523925103,1.0,,right,gold,0.0,244.0,1.0,right,2023_Oct_09_1007,habits_v_MRI,5.0,40.0,1.0,5.0,30.0,15.0,5.0,15.0,30.0,30.0,60.0,RR,60.09620434555325,
20.0,1.0,resp2,stim/right_resp_img.png,"[-0.5, 0]",right,stim/gold_coin.png,gold,,,,,training,,,gold,deval,,,,,0.0,0.0,0.0,0.0,0.0,1.0,1.0,1.0,,,,,,,,,0.0,training_resp,,96.60427021363284,16.68043689208571,1.0,,right,gold,0.0,244.0,1.0,right,2023_Oct_09_1007,habits_v_MRI,5.0,40.0,1.0,5.0,30.0,15.0,5.0,15.0,30.0,30.0,60.0,RR,60.09620434555325,
20.0,1.0,resp2,stim/right_resp_img.png,"[-0.5, 0]",right,stim/gold_coin.png,gold,,,,,training,,,gold,deval,,,,,0.0,0.0,0.0,0.0,0.0,1.0,1.0,1.0,,,,,,,,,0.0,training_resp,,97.67086001031566,17.74701407912653,1.0,,right,gold,0.0,244.0,1.0,right,2023_Oct_09_1007,habits_v_MRI,5.0,40.0,1.0,5.0,30.0,15.0,5.0,15.0,30.0,30.0,60.0,RR,60.09620434555325,
20.0,1.0,resp2,stim/right_resp_img.png,"[-0.5, 0]",right,stim/gold_coin.png,gold,,,,,training,,,gold,deval,,,,,0.0,0.0,0.0,0.0,0.0,1.0,1.0,1.0,,,,,,,,,0.0,training_resp,,98.60406875249464,18.680266515119,1.0,,right,gold,0.0,244.0,1.0,right,2023_Oct_09_1007,habits_v_MRI,5.0,40.0,1.0,5.0,30.0,15.0,5.0,15.0,30.0,30.0,60.0,RR,60.09620434555325,
20.0,1.0,resp2,stim/right_resp_img.png,"[-0.5, 0]",right,stim/gold_coin.png,gold,,,,,training,,,gold,deval,,,,,0.0,0.0,0.0,0.0,0.0,1.0,1.0,1.0,,,,,,,,,0.0,training_resp,,99.52078935236204,19.59694576705806,1.0,,right,gold,0.0,244.0,1.0,right,2023_Oct_09_1007,habits_v_MRI,5.0,40.0,1.0,5.0,30.0,15.0,5.0,15.0,30.0,30.0,60.0,RR,60.09620434555325,
20.0,1.0,resp2,stim/right_resp_img.png,"[-0.5, 0]",right,stim/gold_coin.png,gold,,,,,training,,,gold,deval,,,,,0.0,0.0,0.0,0.0,0.0,1.0,1.0,1.0,,,,,,,,,0.0,training_resp,,100.52077234396712,20.59690471237991,1.0,23.0,right,gold,1.0,244.0,1.0,right,2023_Oct_09_1007,habits_v_MRI,5.0,40.0,1.0,5.0,30.0,15.0,5.0,15.0,30.0,30.0,60.0,RR,60.09620434555325,
20.0,1.0,resp2,stim/right_resp_img.png,"[-0.5, 0]",right,stim/gold_coin.png,gold,,,,,training,,,gold,deval,,,,,0.0,0.0,0.0,0.0,0.0,1.0,1.0,1.0,,,,,,,,,0.0,training_resp,,101.67059872671962,21.74681232473813,1.0,,right,gold,0.0,244.0,1.0,right,2023_Oct_09_1007,habits_v_MRI,5.0,40.0,1.0,5.0,30.0,15.0,5.0,15.0,30.0,30.0,60.0,RR,60.09620434555325,
20.0,1.0,resp2,stim/right_resp_img.png,"[-0.5, 0]",right,stim/gold_coin.png,gold,,,,,training,,,gold,deval,,,,,0.0,0.0,0.0,0.0,0.0,1.0,1.0,1.0,,,,,,,,,0.0,training_resp,,102.5539105014177,22.6300502010854,1.0,,right,gold,0.0,244.0,1.0,right,2023_Oct_09_1007,habits_v_MRI,5.0,40.0,1.0,5.0,30.0,15.0,5.0,15.0,30.0,30.0,60.0,RR,60.09620434555325,
20.0,1.0,resp2,stim/right_resp_img.png,"[-0.5, 0]",right,stim/gold_coin.png,gold,,,,,training,,,gold,deval,,,,,0.0,0.0,0.0,0.0,0.0,1.0,1.0,1.0,,,,,,,,,0.0,training_resp,,103.58753808925394,23.663554624887183,1.0,,right,gold,0.0,244.0,1.0,right,2023_Oct_09_1007,habits_v_MRI,5.0,40.0,1.0,5.0,30.0,15.0,5.0,15.0,30.0,30.0,60.0,RR,60.09620434555325,
20.0,1.0,resp2,stim/right_resp_img.png,"[-0.5, 0]",right,stim/gold_coin.png,gold,,,,,training,,,gold,deval,,,,,0.0,0.0,0.0,0.0,0.0,1.0,1.0,1.0,,,,,,,,,0.0,training_resp,,105.30434590089136,25.380099979811348,1.0,,right,gold,0.0,244.0,1.0,right,2023_Oct_09_1007,habits_v_MRI,5.0,40.0,1.0,5.0,30.0,15.0,5.0,15.0,30.0,30.0,60.0,RR,60.09620434555325,
20.0,1.0,resp2,stim/right_resp_img.png,"[-0.5, 0]",right,stim/gold_coin.png,gold,,,,,training,,,gold,deval,,,,,0.0,0.0,0.0,0.0,0.0,1.0,1.0,1.0,,,,,,,,,0.0,training_resp,,106.17064227396622,26.24668784113601,1.0,,right,gold,0.0,244.0,1.0,right,2023_Oct_09_1007,habits_v_MRI,5.0,40.0,1.0,5.0,30.0,15.0,5.0,15.0,30.0,30.0,60.0,RR,60.09620434555325,
20.0,1.0,resp2,stim/right_resp_img.png,"[-0.5, 0]",right,stim/gold_coin.png,gold,,,,,training,,,gold,deval,,,,,0.0,0.0,0.0,0.0,0.0,1.0,1.0,1.0,,,,,,,,,0.0,training_resp,,107.40389204153324,27.47993526258506,1.0,,right,gold,0.0,244.0,1.0,right,2023_Oct_09_1007,habits_v_MRI,5.0,40.0,1.0,5.0,30.0,15.0,5.0,15.0,30.0,30.0,60.0,RR,60.09620434555325,
20.0,1.0,resp2,stim/right_resp_img.png,"[-0.5, 0]",right,stim/gold_coin.png,gold,,,,,training,,,gold,deval,,,,,0.0,0.0,0.0,0.0,0.0,1.0,1.0,1.0,,,,,,,,,0.0,training_resp,,108.10387887468096,28.17990772670601,1.0,,right,gold,0.0,244.0,1.0,right,2023_Oct_09_1007,habits_v_MRI,5.0,40.0,1.0,5.0,30.0,15.0,5.0,15.0,30.0,30.0,60.0,RR,60.09620434555325,
20.0,1.0,resp2,stim/right_resp_img.png,"[-0.5, 0]",right,stim/gold_coin.png,gold,,,,,training,,,gold,deval,,,,,0.0,0.0,0.0,0.0,0.0,1.0,1.0,1.0,,,,,,,,,0.0,training_resp,,108.83722556056456,28.913224501302462,1.0,,right,gold,0.0,244.0,1.0,right,2023_Oct_09_1007,habits_v_MRI,5.0,40.0,1.0,5.0,30.0,15.0,5.0,15.0,30.0,30.0,60.0,RR,60.09620434555325,
20.0,1.0,resp2,stim/right_resp_img.png,"[-0.5, 0]",right,stim/gold_coin.png,gold,,,,,training,,,gold,deval,,,,,0.0,0.0,0.0,0.0,0.0,1.0,1.0,1.0,,,,,,,,,0.0,training_resp,,109.77081611112226,29.84651066083461,1.0,,right,gold,0.0,244.0,1.0,right,2023_Oct_09_1007,habits_v_MRI,5.0,40.0,1.0,5.0,30.0,15.0,5.0,15.0,30.0,30.0,60.0,RR,60.09620434555325,
20.0,1.0,resp2,stim/right_resp_img.png,"[-0.5, 0]",right,stim/gold_coin.png,gold,,,,,training,,,gold,deval,,,,,0.0,0.0,0.0,0.0,0.0,1.0,1.0,1.0,,,,,,,,,0.0,training_resp,,110.50378245487808,30.579820104292597,1.0,,right,gold,0.0,244.0,1.0,right,2023_Oct_09_1007,habits_v_MRI,5.0,40.0,1.0,5.0,30.0,15.0,5.0,15.0,30.0,30.0,60.0,RR,60.09620434555325,
20.0,1.0,resp2,stim/right_resp_img.png,"[-0.5, 0]",right,stim/gold_coin.png,gold,,,,,training,,,gold,deval,,,,,0.0,0.0,0.0,0.0,0.0,1.0,1.0,1.0,,,,,,,,,0.0,training_resp,,111.25370496418329,31.32974818523508,1.0,,right,gold,0.0,244.0,1.0,right,2023_Oct_09_1007,habits_v_MRI,5.0,40.0,1.0,5.0,30.0,15.0,5.0,15.0,30.0,30.0,60.0,RR,60.09620434555325,
20.0,1.0,resp2,stim/right_resp_img.png,"[-0.5, 0]",right,stim/gold_coin.png,gold,,,,,training,,,gold,deval,,,,,0.0,0.0,0.0,0.0,0.0,1.0,1.0,1.0,,,,,,,,,0.0,training_resp,,112.4369823995512,32.51301066507585,1.0,,right,gold,0.0,244.0,1.0,right,2023_Oct_09_1007,habits_v_MRI,5.0,40.0,1.0,5.0,30.0,15.0,5.0,15.0,30.0,30.0,60.0,RR,60.09620434555325,
20.0,1.0,resp2,stim/right_resp_img.png,"[-0.5, 0]",right,stim/gold_coin.png,gold,,,,,training,,,gold,deval,,,,,0.0,0.0,0.0,0.0,0.0,1.0,1.0,1.0,,,,,,,,,0.0,training_resp,,113.30366996501108,33.37966949224938,1.0,,right,gold,0.0,244.0,1.0,right,2023_Oct_09_1007,habits_v_MRI,5.0,40.0,1.0,5.0,30.0,15.0,5.0,15.0,30.0,30.0,60.0,RR,60.09620434555325,
20.0,1.0,resp2,stim/right_resp_img.png,"[-0.5, 0]",right,stim/gold_coin.png,gold,,,,,training,,,gold,deval,,,,,0.0,0.0,0.0,0.0,0.0,1.0,1.0,1.0,,,,,,,,,0.0,training_resp,,114.53688073065132,34.61292189906817,1.0,,right,gold,0.0,244.0,1.0,right,2023_Oct_09_1007,habits_v_MRI,5.0,40.0,1.0,5.0,30.0,15.0,5.0,15.0,30.0,30.0,60.0,RR,60.09620434555325,
20.0,1.0,resp2,stim/right_resp_img.png,"[-0.5, 0]",right,stim/gold_coin.png,gold,,,,,training,,,gold,deval,,,,,0.0,0.0,0.0,0.0,0.0,1.0,1.0,1.0,,,,,,,,,0.0,training_resp,,115.33688495343084,35.412878322415054,1.0,,right,gold,0.0,244.0,1.0,right,2023_Oct_09_1007,habits_v_MRI,5.0,40.0,1.0,5.0,30.0,15.0,5.0,15.0,30.0,30.0,60.0,RR,60.09620434555325,
20.0,1.0,resp2,stim/right_resp_img.png,"[-0.5, 0]",right,stim/gold_coin.png,gold,,,,,training,,,gold,deval,,,,,0.0,0.0,0.0,0.0,0.0,1.0,1.0,1.0,,,,,,,,,0.0,training_resp,,116.13686131767464,36.212852927157655,1.0,,right,gold,0.0,244.0,1.0,right,2023_Oct_09_1007,habits_v_MRI,5.0,40.0,1.0,5.0,30.0,15.0,5.0,15.0,30.0,30.0,60.0,RR,60.09620434555325,
20.0,1.0,resp2,stim/right_resp_img.png,"[-0.5, 0]",right,stim/gold_coin.png,gold,,,,,training,,,gold,deval,,,,,0.0,0.0,0.0,0.0,0.0,1.0,1.0,1.0,,,,,,,,,0.0,ITI_start,28.333333333333336,117.10418091970496,37.179393077036366,,,,,,244.0,1.0,right,2023_Oct_09_1007,habits_v_MRI,5.0,40.0,1.0,5.0,30.0,15.0,5.0,15.0,30.0,30.0,60.0,RR,60.09620434555325,
20.0,0.0,resp1,stim/left_resp_img.png,"[0.5, 0]",left,stim/silver_coin.png,gold,,,,,training,,,silver,val,,,,,0.0,0.0,0.0,0.0,1.0,0.0,2.0,0.0,,,,,,,,,0.0,training_period_start,60.0,145.4726729845861,0.0,2.0,13.0,,,,244.0,1.0,right,2023_Oct_09_1007,habits_v_MRI,5.0,40.0,1.0,5.0,30.0,15.0,5.0,15.0,30.0,30.0,60.0,RR,60.09620434555325,
20.0,0.0,resp1,stim/left_resp_img.png,"[0.5, 0]",left,stim/silver_coin.png,gold,,,,,training,,,silver,val,,,,,0.0,0.0,0.0,0.0,1.0,0.0,2.0,0.0,,,,,,,,,0.0,training_resp,,146.83506901736837,1.3814198875334114,2.0,,left,silver,0.0,244.0,1.0,right,2023_Oct_09_1007,habits_v_MRI,5.0,40.0,1.0,5.0,30.0,15.0,5.0,15.0,30.0,30.0,60.0,RR,60.09620434555325,
20.0,0.0,resp1,stim/left_resp_img.png,"[0.5, 0]",left,stim/silver_coin.png,gold,,,,,training,,,silver,val,,,,,0.0,0.0,0.0,0.0,1.0,0.0,2.0,0.0,,,,,,,,,0.0,training_resp,,147.4016701040091,1.9480857820017263,2.0,,left,silver,0.0,244.0,1.0,right,2023_Oct_09_1007,habits_v_MRI,5.0,40.0,1.0,5.0,30.0,15.0,5.0,15.0,30.0,30.0,60.0,RR,60.09620434555325,
20.0,0.0,resp1,stim/left_resp_img.png,"[0.5, 0]",left,stim/silver_coin.png,gold,,,,,training,,,silver,val,,,,,0.0,0.0,0.0,0.0,1.0,0.0,2.0,0.0,,,,,,,,,0.0,training_resp,,147.96826884476468,2.514668687363155,2.0,,left,silver,0.0,244.0,1.0,right,2023_Oct_09_1007,habits_v_MRI,5.0,40.0,1.0,5.0,30.0,15.0,5.0,15.0,30.0,30.0,60.0,RR,60.09620434555325,
20.0,0.0,resp1,stim/left_resp_img.png,"[0.5, 0]",left,stim/silver_coin.png,gold,,,,,training,,,silver,val,,,,,0.0,0.0,0.0,0.0,1.0,0.0,2.0,0.0,,,,,,,,,0.0,training_resp,,149.03488092822954,3.581294846720993,2.0,,left,silver,0.0,244.0,1.0,right,2023_Oct_09_1007,habits_v_MRI,5.0,40.0,1.0,5.0,30.0,15.0,5.0,15.0,30.0,30.0,60.0,RR,60.09620434555325,
20.0,0.0,resp1,stim/left_resp_img.png,"[0.5, 0]",left,stim/silver_coin.png,gold,,,,,training,,,silver,val,,,,,0.0,0.0,0.0,0.0,1.0,0.0,2.0,0.0,,,,,,,,,0.0,training_resp,,149.93484330456704,4.481239335029386,2.0,,left,silver,0.0,244.0,1.0,right,2023_Oct_09_1007,habits_v_MRI,5.0,40.0,1.0,5.0,30.0,15.0,5.0,15.0,30.0,30.0,60.0,RR,60.09620434555325,
20.0,0.0,resp1,stim/left_resp_img.png,"[0.5, 0]",left,stim/silver_coin.png,gold,,,,,training,,,silver,val,,,,,0.0,0.0,0.0,0.0,1.0,0.0,2.0,0.0,,,,,,,,,0.0,training_resp,,150.75163654179778,5.297868060297333,2.0,,left,silver,0.0,244.0,1.0,right,2023_Oct_09_1007,habits_v_MRI,5.0,40.0,1.0,5.0,30.0,15.0,5.0,15.0,30.0,30.0,60.0,RR,60.09620434555325,
20.0,0.0,resp1,stim/left_resp_img.png,"[0.5, 0]",left,stim/silver_coin.png,gold,,,,,training,,,silver,val,,,,,0.0,0.0,0.0,0.0,1.0,0.0,2.0,0.0,,,,,,,,,0.0,training_resp,,151.48477854090743,6.031158149358816,2.0,,left,silver,0.0,244.0,1.0,right,2023_Oct_09_1007,habits_v_MRI,5.0,40.0,1.0,5.0,30.0,15.0,5.0,15.0,30.0,30.0,60.0,RR,60.09620434555325,
20.0,0.0,resp1,stim/left_resp_img.png,"[0.5, 0]",left,stim/silver_coin.png,gold,,,,,training,,,silver,val,,,,,0.0,0.0,0.0,0.0,1.0,0.0,2.0,0.0,,,,,,,,,0.0,training_resp,,152.26798817748204,6.814456053543836,2.0,,left,silver,0.0,244.0,1.0,right,2023_Oct_09_1007,habits_v_MRI,5.0,40.0,1.0,5.0,30.0,15.0,5.0,15.0,30.0,30.0,60.0,RR,60.09620434555325,
20.0,0.0,resp1,stim/left_resp_img.png,"[0.5, 0]",left,stim/silver_coin.png,gold,,,,,training,,,silver,val,,,,,0.0,0.0,0.0,0.0,1.0,0.0,2.0,0.0,,,,,,,,,0.0,training_resp,,153.03472404077183,7.581084294943139,2.0,,left,silver,0.0,244.0,1.0,right,2023_Oct_09_1007,habits_v_MRI,5.0,40.0,1.0,5.0,30.0,15.0,5.0,15.0,30.0,30.0,60.0,RR,60.09620434555325,
20.0,0.0,resp1,stim/left_resp_img.png,"[0.5, 0]",left,stim/silver_coin.png,gold,,,,,training,,,silver,val,,,,,0.0,0.0,0.0,0.0,1.0,0.0,2.0,0.0,,,,,,,,,0.0,training_resp,,153.7512949083466,8.297715864726342,2.0,,left,silver,0.0,244.0,1.0,right,2023_Oct_09_1007,habits_v_MRI,5.0,40.0,1.0,5.0,30.0,15.0,5.0,15.0,30.0,30.0,60.0,RR,60.09620434555325,
20.0,0.0,resp1,stim/left_resp_img.png,"[0.5, 0]",left,stim/silver_coin.png,gold,,,,,training,,,silver,val,,,,,0.0,0.0,0.0,0.0,1.0,0.0,2.0,0.0,,,,,,,,,0.0,training_resp,,154.5179436771432,9.064340293989517,2.0,,left,silver,0.0,244.0,1.0,right,2023_Oct_09_1007,habits_v_MRI,5.0,40.0,1.0,5.0,30.0,15.0,5.0,15.0,30.0,30.0,60.0,RR,60.09620434555325,
20.0,0.0,resp1,stim/left_resp_img.png,"[0.5, 0]",left,stim/silver_coin.png,gold,,,,,training,,,silver,val,,,,,0.0,0.0,0.0,0.0,1.0,0.0,2.0,0.0,,,,,,,,,0.0,training_resp,,155.23448609968182,9.78090646956116,2.0,,left,silver,0.0,244.0,1.0,right,2023_Oct_09_1007,habits_v_MRI,5.0,40.0,1.0,5.0,30.0,15.0,5.0,15.0,30.0,30.0,60.0,RR,60.09620434555325,
20.0,0.0,resp1,stim/left_resp_img.png,"[0.5, 0]",left,stim/silver_coin.png,gold,,,,,training,,,silver,val,,,,,0.0,0.0,0.0,0.0,1.0,0.0,2.0,0.0,,,,,,,,,0.0,training_resp,,156.05105734837707,10.59750352415722,2.0,15.0,left,silver,1.0,244.0,1.0,right,2023_Oct_09_1007,habits_v_MRI,5.0,40.0,1.0,5.0,30.0,15.0,5.0,15.0,30.0,30.0,60.0,RR,60.09620434555325,
20.0,0.0,resp1,stim/left_resp_img.png,"[0.5, 0]",left,stim/silver_coin.png,gold,,,,,training,,,silver,val,,,,,0.0,0.0,0.0,0.0,1.0,0.0,2.0,0.0,,,,,,,,,0.0,training_resp,,156.81783925159834,11.364189242129214,2.0,,left,silver,0.0,244.0,1.0,right,2023_Oct_09_1007,habits_v_MRI,5.0,40.0,1.0,5.0,30.0,15.0,5.0,15.0,30.0,30.0,60.0,RR,60.09620434555325,
20.0,0.0,resp1,stim/left_resp_img.png,"[0.5, 0]",left,stim/silver_coin.png,gold,,,,,training,,,silver,val,,,,,0.0,0.0,0.0,0.0,1.0,0.0,2.0,0.0,,,,,,,,,0.0,training_resp,,158.30102369829547,12.84742471377831,2.0,,left,silver,0.0,244.0,1.0,right,2023_Oct_09_1007,habits_v_MRI,5.0,40.0,1.0,5.0,30.0,15.0,5.0,15.0,30.0,30.0,60.0,RR,60.09620434555325,
20.0,0.0,resp1,stim/left_resp_img.png,"[0.5, 0]",left,stim/silver_coin.png,gold,,,,,training,,,silver,val,,,,,0.0,0.0,0.0,0.0,1.0,0.0,2.0,0.0,,,,,,,,,0.0,training_resp,,159.13440859434195,13.680735418223776,2.0,,left,silver,0.0,244.0,1.0,right,2023_Oct_09_1007,habits_v_MRI,5.0,40.0,1.0,5.0,30.0,15.0,5.0,15.0,30.0,30.0,60.0,RR,60.09620434555325,
20.0,0.0,resp1,stim/left_resp_img.png,"[0.5, 0]",left,stim/silver_coin.png,gold,,,,,training,,,silver,val,,,,,0.0,0.0,0.0,0.0,1.0,0.0,2.0,0.0,,,,,,,,,0.0,training_resp,,159.85091934609227,14.397338249720631,2.0,,left,silver,0.0,244.0,1.0,right,2023_Oct_09_1007,habits_v_MRI,5.0,40.0,1.0,5.0,30.0,15.0,5.0,15.0,30.0,30.0,60.0,RR,60.09620434555325,
20.0,0.0,resp1,stim/left_resp_img.png,"[0.5, 0]",left,stim/silver_coin.png,gold,,,,,training,,,silver,val,,,,,0.0,0.0,0.0,0.0,1.0,0.0,2.0,0.0,,,,,,,,,0.0,training_resp,,160.5675614727661,15.113970406004228,2.0,,left,silver,0.0,244.0,1.0,right,2023_Oct_09_1007,habits_v_MRI,5.0,40.0,1.0,5.0,30.0,15.0,5.0,15.0,30.0,30.0,60.0,RR,60.09620434555325,
20.0,0.0,resp1,stim/left_resp_img.png,"[0.5, 0]",left,stim/silver_coin.png,gold,,,,,training,,,silver,val,,,,,0.0,0.0,0.0,0.0,1.0,0.0,2.0,0.0,,,,,,,,,0.0,training_resp,,161.23423156072386,15.780633455957286,2.0,,left,silver,0.0,244.0,1.0,right,2023_Oct_09_1007,habits_v_MRI,5.0,40.0,1.0,5.0,30.0,15.0,5.0,15.0,30.0,30.0,60.0,RR,60.09620434555325,
20.0,0.0,resp1,stim/left_resp_img.png,"[0.5, 0]",left,stim/silver_coin.png,gold,,,,,training,,,silver,val,,,,,0.0,0.0,0.0,0.0,1.0,0.0,2.0,0.0,,,,,,,,,0.0,training_resp,,161.9007054659305,16.447132873814553,2.0,,left,silver,0.0,244.0,1.0,right,2023_Oct_09_1007,habits_v_MRI,5.0,40.0,1.0,5.0,30.0,15.0,5.0,15.0,30.0,30.0,60.0,RR,60.09620434555325,
20.0,0.0,resp1,stim/left_resp_img.png,"[0.5, 0]",left,stim/silver_coin.png,gold,,,,,training,,,silver,val,,,,,0.0,0.0,0.0,0.0,1.0,0.0,2.0,0.0,,,,,,,,,0.0,training_resp,,163.4174066527048,17.963813239941373,2.0,,left,silver,0.0,244.0,1.0,right,2023_Oct_09_1007,habits_v_MRI,5.0,40.0,1.0,5.0,30.0,15.0,5.0,15.0,30.0,30.0,60.0,RR,60.09620434555325,
20.0,0.0,resp1,stim/left_resp_img.png,"[0.5, 0]",left,stim/silver_coin.png,gold,,,,,training,,,silver,val,,,,,0.0,0.0,0.0,0.0,1.0,0.0,2.0,0.0,,,,,,,,,0.0,training_resp,,164.4839545149589,19.03035142505541,2.0,,left,silver,0.0,244.0,1.0,right,2023_Oct_09_1007,habits_v_MRI,5.0,40.0,1.0,5.0,30.0,15.0,5.0,15.0,30.0,30.0,60.0,RR,60.09620434555325,
20.0,0.0,resp1,stim/left_resp_img.png,"[0.5, 0]",left,stim/silver_coin.png,gold,,,,,training,,,silver,val,,,,,0.0,0.0,0.0,0.0,1.0,0.0,2.0,0.0,,,,,,,,,0.0,training_resp,,165.4173955093138,19.963717054808512,2.0,,left,silver,0.0,244.0,1.0,right,2023_Oct_09_1007,habits_v_MRI,5.0,40.0,1.0,5.0,30.0,15.0,5.0,15.0,30.0,30.0,60.0,RR,60.09620434555325,
20.0,0.0,resp1,stim/left_resp_img.png,"[0.5, 0]",left,stim/silver_coin.png,gold,,,,,training,,,silver,val,,,,,0.0,0.0,0.0,0.0,1.0,0.0,2.0,0.0,,,,,,,,,0.0,training_resp,,166.03385661426,20.58029545878526,2.0,,left,silver,0.0,244.0,1.0,right,2023_Oct_09_1007,habits_v_MRI,5.0,40.0,1.0,5.0,30.0,15.0,5.0,15.0,30.0,30.0,60.0,RR,60.09620434555325,
20.0,0.0,resp1,stim/left_resp_img.png,"[0.5, 0]",left,stim/silver_coin.png,gold,,,,,training,,,silver,val,,,,,0.0,0.0,0.0,0.0,1.0,0.0,2.0,0.0,,,,,,,,,0.0,training_resp,,166.75071955646854,21.297018521814607,2.0,,left,silver,0.0,244.0,1.0,right,2023_Oct_09_1007,habits_v_MRI,5.0,40.0,1.0,5.0,30.0,15.0,5.0,15.0,30.0,30.0,60.0,RR,60.09620434555325,
20.0,0.0,resp1,stim/left_resp_img.png,"[0.5, 0]",left,stim/silver_coin.png,gold,,,,,training,,,silver,val,,,,,0.0,0.0,0.0,0.0,1.0,0.0,2.0,0.0,,,,,,,,,0.0,training_resp,,168.88379240769427,23.430177001398988,2.0,,left,silver,0.0,244.0,1.0,right,2023_Oct_09_1007,habits_v_MRI,5.0,40.0,1.0,5.0,30.0,15.0,5.0,15.0,30.0,30.0,60.0,RR,60.09620434555325,
20.0,0.0,resp1,stim/left_resp_img.png,"[0.5, 0]",left,stim/silver_coin.png,gold,,,,,training,,,silver,val,,,,,0.0,0.0,0.0,0.0,1.0,0.0,2.0,0.0,,,,,,,,,0.0,training_resp,,170.01702449237928,24.563414657721296,2.0,,left,silver,0.0,244.0,1.0,right,2023_Oct_09_1007,habits_v_MRI,5.0,40.0,1.0,5.0,30.0,15.0,5.0,15.0,30.0,30.0,60.0,RR,60.09620434555325,
20.0,0.0,resp1,stim/left_resp_img.png,"[0.5, 0]",left,stim/silver_coin.png,gold,,,,,training,,,silver,val,,,,,0.0,0.0,0.0,0.0,1.0,0.0,2.0,0.0,,,,,,,,,0.0,training_resp,,170.9169783644611,25.463378500309773,2.0,17.0,left,silver,1.0,244.0,1.0,right,2023_Oct_09_1007,habits_v_MRI,5.0,40.0,1.0,5.0,30.0,15.0,5.0,15.0,30.0,30.0,60.0,RR,60.09620434555325,
20.0,0.0,resp1,stim/left_resp_img.png,"[0.5, 0]",left,stim/silver_coin.png,gold,,,,,training,,,silver,val,,,,,0.0,0.0,0.0,0.0,1.0,0.0,2.0,0.0,,,,,,,,,0.0,training_resp,,171.8502495684661,26.396637387922965,2.0,,left,silver,0.0,244.0,1.0,right,2023_Oct_09_1007,habits_v_MRI,5.0,40.0,1.0,5.0,30.0,15.0,5.0,15.0,30.0,30.0,60.0,RR,60.09620434555325,
20.0,0.0,resp1,stim/left_resp_img.png,"[0.5, 0]",left,stim/silver_coin.png,gold,,,,,training,,,silver,val,,,,,0.0,0.0,0.0,0.0,1.0,0.0,2.0,0.0,,,,,,,,,0.0,training_resp,,176.75006356148515,31.29640886001289,2.0,,left,silver,0.0,244.0,1.0,right,2023_Oct_09_1007,habits_v_MRI,5.0,40.0,1.0,5.0,30.0,15.0,5.0,15.0,30.0,30.0,60.0,RR,60.09620434555325,
20.0,0.0,resp1,stim/left_resp_img.png,"[0.5, 0]",left,stim/silver_coin.png,gold,,,,,training,,,silver,val,,,,,0.0,0.0,0.0,0.0,1.0,0.0,2.0,0.0,,,,,,,,,0.0,training_resp,,177.41652837593574,31.96296428807545,2.0,,left,silver,0.0,244.0,1.0,right,2023_Oct_09_1007,habits_v_MRI,5.0,40.0,1.0,5.0,30.0,15.0,5.0,15.0,30.0,30.0,60.0,RR,60.09620434555325,
20.0,0.0,resp1,stim/left_resp_img.png,"[0.5, 0]",left,stim/silver_coin.png,gold,,,,,training,,,silver,val,,,,,0.0,0.0,0.0,0.0,1.0,0.0,2.0,0.0,,,,,,,,,0.0,training_resp,,178.05001925176475,32.596376866684295,2.0,,left,silver,0.0,244.0,1.0,right,2023_Oct_09_1007,habits_v_MRI,5.0,40.0,1.0,5.0,30.0,15.0,5.0,15.0,30.0,30.0,60.0,RR,60.09620434555325,
20.0,0.0,resp1,stim/left_resp_img.png,"[0.5, 0]",left,stim/silver_coin.png,gold,,,,,training,,,silver,val,,,,,0.0,0.0,0.0,0.0,1.0,0.0,2.0,0.0,,,,,,,,,0.0,training_resp,,178.83326671726536,33.37962345243432,2.0,,left,silver,0.0,244.0,1.0,right,2023_Oct_09_1007,habits_v_MRI,5.0,40.0,1.0,5.0,30.0,15.0,5.0,15.0,30.0,30.0,60.0,RR,60.09620434555325,
20.0,0.0,resp1,stim/left_resp_img.png,"[0.5, 0]",left,stim/silver_coin.png,gold,,,,,training,,,silver,val,,,,,0.0,0.0,0.0,0.0,1.0,0.0,2.0,0.0,,,,,,,,,0.0,training_resp,,179.38316295156255,33.92959974333644,2.0,,left,silver,0.0,244.0,1.0,right,2023_Oct_09_1007,habits_v_MRI,5.0,40.0,1.0,5.0,30.0,15.0,5.0,15.0,30.0,30.0,60.0,RR,60.09620434555325,
20.0,0.0,resp1,stim/left_resp_img.png,"[0.5, 0]",left,stim/silver_coin.png,gold,,,,,training,,,silver,val,,,,,0.0,0.0,0.0,0.0,1.0,0.0,2.0,0.0,,,,,,,,,0.0,training_resp,,180.06644933111966,34.61285650485661,2.0,,left,silver,0.0,244.0,1.0,right,2023_Oct_09_1007,habits_v_MRI,5.0,40.0,1.0,5.0,30.0,15.0,5.0,15.0,30.0,30.0,60.0,RR,60.09620434555325,
20.0,0.0,resp1,stim/left_resp_img.png,"[0.5, 0]",left,stim/silver_coin.png,gold,,,,,training,,,silver,val,,,,,0.0,0.0,0.0,0.0,1.0,0.0,2.0,0.0,,,,,,,,,0.0,training_resp,,180.86646088503767,35.41283316235058,2.0,,left,silver,0.0,244.0,1.0,right,2023_Oct_09_1007,habits_v_MRI,5.0,40.0,1.0,5.0,30.0,15.0,5.0,15.0,30.0,30.0,60.0,RR,60.09620434555325,
20.0,0.0,resp1,stim/left_resp_img.png,"[0.5, 0]",left,stim/silver_coin.png,gold,,,,,training,,,silver,val,,,,,0.0,0.0,0.0,0.0,1.0,0.0,2.0,0.0,,,,,,,,,0.0,training_resp,,181.54974902397956,36.096120421541855,2.0,,left,silver,0.0,244.0,1.0,right,2023_Oct_09_1007,habits_v_MRI,5.0,40.0,1.0,5.0,30.0,15.0,5.0,15.0,30.0,30.0,60.0,RR,60.09620434555325,
20.0,0.0,resp1,stim/left_resp_img.png,"[0.5, 0]",left,stim/silver_coin.png,gold,,,,,training,,,silver,val,,,,,0.0,0.0,0.0,0.0,1.0,0.0,2.0,0.0,,,,,,,,,0.0,training_resp,,182.43297751643692,36.97938293067273,2.0,,left,silver,0.0,244.0,1.0,right,2023_Oct_09_1007,habits_v_MRI,5.0,40.0,1.0,5.0,30.0,15.0,5.0,15.0,30.0,30.0,60.0,RR,60.09620434555325,
20.0,0.0,resp1,stim/left_resp_img.png,"[0.5, 0]",left,stim/silver_coin.png,gold,,,,,training,,,silver,val,,,,,0.0,0.0,0.0,0.0,1.0,0.0,2.0,0.0,,,,,,,,,0.0,training_resp,,183.3164420732064,37.862699983874336,2.0,,left,silver,0.0,244.0,1.0,right,2023_Oct_09_1007,habits_v_MRI,5.0,40.0,1.0,5.0,30.0,15.0,5.0,15.0,30.0,30.0,60.0,RR,60.09620434555325,
20.0,0.0,resp1,stim/left_resp_img.png,"[0.5, 0]",left,stim/silver_coin.png,gold,,,,,training,,,silver,val,,,,,0.0,0.0,0.0,0.0,1.0,0.0,2.0,0.0,,,,,,,,,0.0,training_resp,,184.0828937796177,38.629285117960535,2.0,,left,silver,0.0,244.0,1.0,right,2023_Oct_09_1007,habits_v_MRI,5.0,40.0,1.0,5.0,30.0,15.0,5.0,15.0,30.0,30.0,60.0,RR,60.09620434555325,
20.0,0.0,resp1,stim/left_resp_img.png,"[0.5, 0]",left,stim/silver_coin.png,gold,,,,,training,,,silver,val,,,,,0.0,0.0,0.0,0.0,1.0,0.0,2.0,0.0,,,,,,,,,0.0,training_resp,,184.8163859163178,39.36258371127769,2.0,,left,silver,0.0,244.0,1.0,right,2023_Oct_09_1007,habits_v_MRI,5.0,40.0,1.0,5.0,30.0,15.0,5.0,15.0,30.0,30.0,60.0,RR,60.09620434555325,
20.0,0.0,resp1,stim/left_resp_img.png,"[0.5, 0]",left,stim/silver_coin.png,gold,,,,,training,,,silver,val,,,,,0.0,0.0,0.0,0.0,1.0,0.0,2.0,0.0,,,,,,,,,0.0,training_resp,,185.56624713679776,40.11258246493526,2.0,,left,silver,0.0,244.0,1.0,right,2023_Oct_09_1007,habits_v_MRI,5.0,40.0,1.0,5.0,30.0,15.0,5.0,15.0,30.0,30.0,60.0,RR,60.09620434555325,
20.0,0.0,resp1,stim/left_resp_img.png,"[0.5, 0]",left,stim/silver_coin.png,gold,,,,,training,,,silver,val,,,,,0.0,0.0,0.0,0.0,1.0,0.0,2.0,0.0,,,,,,,,,0.0,training_resp,,186.39951620006468,40.94587645423599,2.0,,left,silver,0.0,244.0,1.0,right,2023_Oct_09_1007,habits_v_MRI,5.0,40.0,1.0,5.0,30.0,15.0,5.0,15.0,30.0,30.0,60.0,RR,60.09620434555325,
20.0,0.0,resp1,stim/left_resp_img.png,"[0.5, 0]",left,stim/silver_coin.png,gold,,,,,training,,,silver,val,,,,,0.0,0.0,0.0,0.0,1.0,0.0,2.0,0.0,,,,,,,,,0.0,training_resp,,187.2159944892628,41.76241222000681,2.0,,left,silver,0.0,244.0,1.0,right,2023_Oct_09_1007,habits_v_MRI,5.0,40.0,1.0,5.0,30.0,15.0,5.0,15.0,30.0,30.0,60.0,RR,60.09620434555325,
20.0,0.0,resp1,stim/left_resp_img.png,"[0.5, 0]",left,stim/silver_coin.png,gold,,,,,training,,,silver,val,,,,,0.0,0.0,0.0,0.0,1.0,0.0,2.0,0.0,,,,,,,,,0.0,training_resp,,187.86599989968815,42.412415870931,2.0,15.0,left,silver,1.0,244.0,1.0,right,2023_Oct_09_1007,habits_v_MRI,5.0,40.0,1.0,5.0,30.0,15.0,5.0,15.0,30.0,30.0,60.0,RR,60.09620434555325,
20.0,0.0,resp1,stim/left_resp_img.png,"[0.5, 0]",left,stim/silver_coin.png,gold,,,,,training,,,silver,val,,,,,0.0,0.0,0.0,0.0,1.0,0.0,2.0,0.0,,,,,,,,,0.0,training_resp,,188.49949781340547,43.04570763150696,2.0,,left,silver,0.0,244.0,1.0,right,2023_Oct_09_1007,habits_v_MRI,5.0,40.0,1.0,5.0,30.0,15.0,5.0,15.0,30.0,30.0,60.0,RR,60.09620434555325,
20.0,0.0,resp1,stim/left_resp_img.png,"[0.5, 0]",left,stim/silver_coin.png,gold,,,,,training,,,silver,val,,,,,0.0,0.0,0.0,0.0,1.0,0.0,2.0,0.0,,,,,,,,,0.0,training_resp,,189.2159264557995,43.7623629544396,2.0,,left,silver,0.0,244.0,1.0,right,2023_Oct_09_1007,habits_v_MRI,5.0,40.0,1.0,5.0,30.0,15.0,5.0,15.0,30.0,30.0,60.0,RR,60.09620434555325,
20.0,0.0,resp1,stim/left_resp_img.png,"[0.5, 0]",left,stim/silver_coin.png,gold,,,,,training,,,silver,val,,,,,0.0,0.0,0.0,0.0,1.0,0.0,2.0,0.0,,,,,,,,,0.0,training_resp,,189.93258735048585,44.47899687022437,2.0,,left,silver,0.0,244.0,1.0,right,2023_Oct_09_1007,habits_v_MRI,5.0,40.0,1.0,5.0,30.0,15.0,5.0,15.0,30.0,30.0,60.0,RR,60.09620434555325,
20.0,0.0,resp1,stim/left_resp_img.png,"[0.5, 0]",left,stim/silver_coin.png,gold,,,,,training,,,silver,val,,,,,0.0,0.0,0.0,0.0,1.0,0.0,2.0,0.0,,,,,,,,,0.0,training_resp,,190.58260243805125,45.12897764786612,2.0,,left,silver,0.0,244.0,1.0,right,2023_Oct_09_1007,habits_v_MRI,5.0,40.0,1.0,5.0,30.0,15.0,5.0,15.0,30.0,30.0,60.0,RR,60.09620434555325,
20.0,0.0,resp1,stim/left_resp_img.png,"[0.5, 0]",left,stim/silver_coin.png,gold,,,,,training,,,silver,val,,,,,0.0,0.0,0.0,0.0,1.0,0.0,2.0,0.0,,,,,,,,,0.0,training_resp,,191.31584120879413,45.86220116971526,2.0,,left,silver,0.0,244.0,1.0,right,2023_Oct_09_1007,habits_v_MRI,5.0,40.0,1.0,5.0,30.0,15.0,5.0,15.0,30.0,30.0,60.0,RR,60.09620434555325,
20.0,0.0,resp1,stim/left_resp_img.png,"[0.5, 0]",left,stim/silver_coin.png,gold,,,,,training,,,silver,val,,,,,0.0,0.0,0.0,0.0,1.0,0.0,2.0,0.0,,,,,,,,,0.0,training_resp,,191.9824975139927,46.528887679451145,2.0,,left,silver,0.0,244.0,1.0,right,2023_Oct_09_1007,habits_v_MRI,5.0,40.0,1.0,5.0,30.0,15.0,5.0,15.0,30.0,30.0,60.0,RR,60.09620434555325,
20.0,0.0,resp1,stim/left_resp_img.png,"[0.5, 0]",left,stim/silver_coin.png,gold,,,,,training,,,silver,val,,,,,0.0,0.0,0.0,0.0,1.0,0.0,2.0,0.0,,,,,,,,,0.0,training_resp,,192.6659929790767,47.21218725503422,2.0,,left,silver,0.0,244.0,1.0,right,2023_Oct_09_1007,habits_v_MRI,5.0,40.0,1.0,5.0,30.0,15.0,5.0,15.0,30.0,30.0,60.0,RR,60.09620434555325,
20.0,0.0,resp1,stim/left_resp_img.png,"[0.5, 0]",left,stim/silver_coin.png,gold,,,,,training,,,silver,val,,,,,0.0,0.0,0.0,0.0,1.0,0.0,2.0,0.0,,,,,,,,,0.0,training_resp,,193.36576691444495,47.91217496804893,2.0,,left,silver,0.0,244.0,1.0,right,2023_Oct_09_1007,habits_v_MRI,5.0,40.0,1.0,5.0,30.0,15.0,5.0,15.0,30.0,30.0,60.0,RR,60.09620434555325,
20.0,0.0,resp1,stim/left_resp_img.png,"[0.5, 0]",left,stim/silver_coin.png,gold,,,,,training,,,silver,val,,,,,0.0,0.0,0.0,0.0,1.0,0.0,2.0,0.0,,,,,,,,,0.0,training_resp,,193.9989683547756,48.54538901790511,2.0,,left,silver,0.0,244.0,1.0,right,2023_Oct_09_1007,habits_v_MRI,5.0,40.0,1.0,5.0,30.0,15.0,5.0,15.0,30.0,30.0,60.0,RR,60.09620434555325,
20.0,0.0,resp1,stim/left_resp_img.png,"[0.5, 0]",left,stim/silver_coin.png,gold,,,,,training,,,silver,val,,,,,0.0,0.0,0.0,0.0,1.0,0.0,2.0,0.0,,,,,,,,,0.0,training_resp,,194.64900572923943,49.195353080518544,2.0,,left,silver,0.0,244.0,1.0,right,2023_Oct_09_1007,habits_v_MRI,5.0,40.0,1.0,5.0,30.0,15.0,5.0,15.0,30.0,30.0,60.0,RR,60.09620434555325,
20.0,0.0,resp1,stim/left_resp_img.png,"[0.5, 0]",left,stim/silver_coin.png,gold,,,,,training,,,silver,val,,,,,0.0,0.0,0.0,0.0,1.0,0.0,2.0,0.0,,,,,,,,,0.0,training_resp,,195.41554306389295,49.961948184878565,2.0,,left,silver,0.0,244.0,1.0,right,2023_Oct_09_1007,habits_v_MRI,5.0,40.0,1.0,5.0,30.0,15.0,5.0,15.0,30.0,30.0,60.0,RR,60.09620434555325,
20.0,0.0,resp1,stim/left_resp_img.png,"[0.5, 0]",left,stim/silver_coin.png,gold,,,,,training,,,silver,val,,,,,0.0,0.0,0.0,0.0,1.0,0.0,2.0,0.0,,,,,,,,,0.0,training_resp,,195.89891753497068,50.44528013514355,2.0,,left,silver,0.0,244.0,1.0,right,2023_Oct_09_1007,habits_v_MRI,5.0,40.0,1.0,5.0,30.0,15.0,5.0,15.0,30.0,30.0,60.0,RR,60.09620434555325,
20.0,0.0,resp1,stim/left_resp_img.png,"[0.5, 0]",left,stim/silver_coin.png,gold,,,,,training,,,silver,val,,,,,0.0,0.0,0.0,0.0,1.0,0.0,2.0,0.0,,,,,,,,,0.0,training_resp,,196.6155690456508,51.161963609745726,2.0,,left,silver,0.0,244.0,1.0,right,2023_Oct_09_1007,habits_v_MRI,5.0,40.0,1.0,5.0,30.0,15.0,5.0,15.0,30.0,30.0,60.0,RR,60.09620434555325,
20.0,0.0,resp1,stim/left_resp_img.png,"[0.5, 0]",left,stim/silver_coin.png,gold,,,,,training,,,silver,val,,,,,0.0,0.0,0.0,0.0,1.0,0.0,2.0,0.0,,,,,,,,,0.0,training_resp,,197.3155139443697,51.86190029757563,2.0,,left,silver,0.0,244.0,1.0,right,2023_Oct_09_1007,habits_v_MRI,5.0,40.0,1.0,5.0,30.0,15.0,5.0,15.0,30.0,30.0,60.0,RR,60.09620434555325,
20.0,0.0,resp1,stim/left_resp_img.png,"[0.5, 0]",left,stim/silver_coin.png,gold,,,,,training,,,silver,val,,,,,0.0,0.0,0.0,0.0,1.0,0.0,2.0,0.0,,,,,,,,,0.0,training_resp,,197.86553686170373,52.41190298076253,2.0,15.0,left,silver,1.0,244.0,1.0,right,2023_Oct_09_1007,habits_v_MRI,5.0,40.0,1.0,5.0,30.0,15.0,5.0,15.0,30.0,30.0,60.0,RR,60.09620434555325,
20.0,0.0,resp1,stim/left_resp_img.png,"[0.5, 0]",left,stim/silver_coin.png,gold,,,,,training,,,silver,val,,,,,0.0,0.0,0.0,0.0,1.0,0.0,2.0,0.0,,,,,,,,,0.0,training_resp,,201.74864512251224,56.29499188729096,2.0,,left,silver,0.0,244.0,1.0,right,2023_Oct_09_1007,habits_v_MRI,5.0,40.0,1.0,5.0,30.0,15.0,5.0,15.0,30.0,30.0,60.0,RR,60.09620434555325,
20.0,0.0,resp1,stim/left_resp_img.png,"[0.5, 0]",left,stim/silver_coin.png,gold,,,,,training,,,silver,val,,,,,0.0,0.0,0.0,0.0,1.0,0.0,2.0,0.0,,,,,,,,,0.0,training_resp,,203.88179627095812,58.42818497004919,2.0,,left,silver,0.0,244.0,1.0,right,2023_Oct_09_1007,habits_v_MRI,5.0,40.0,1.0,5.0,30.0,15.0,5.0,15.0,30.0,30.0,60.0,RR,60.09620434555325,
20.0,0.0,resp1,stim/left_resp_img.png,"[0.5, 0]",left,stim/silver_coin.png,gold,,,,,training,,,silver,val,,,,,0.0,0.0,0.0,0.0,1.0,0.0,2.0,0.0,,,,,,,,,0.0,training_resp,,205.01514682767447,59.56147775705904,2.0,,left,silver,0.0,244.0,1.0,right,2023_Oct_09_1007,habits_v_MRI,5.0,40.0,1.0,5.0,30.0,15.0,5.0,15.0,30.0,30.0,60.0,RR,60.09620434555325,
20.0,0.0,resp1,stim/left_resp_img.png,"[0.5, 0]",left,stim/silver_coin.png,gold,,,,,training,,,silver,val,,,,,0.0,0.0,0.0,0.0,1.0,0.0,2.0,0.0,,,,,,,,,0.0,ITI_start,30.0,205.1326992537361,59.678133138571866,,,,,,244.0,1.0,right,2023_Oct_09_1007,habits_v_MRI,5.0,40.0,1.0,5.0,30.0,15.0,5.0,15.0,30.0,30.0,60.0,RR,60.09620434555325,
20.0,1.0,resp2,stim/right_resp_img.png,"[-0.5, 0]",right,stim/gold_coin.png,gold,,,,,training,,,gold,deval,,,,,0.0,0.0,0.0,0.0,1.0,1.0,3.0,1.0,,,,,,,,,0.0,training_period_start,45.0,235.16779806499835,0.0,3.0,5.0,,,,244.0,1.0,right,2023_Oct_09_1007,habits_v_MRI,5.0,40.0,1.0,5.0,30.0,15.0,5.0,15.0,30.0,30.0,60.0,RR,60.09620434555325,
20.0,1.0,resp2,stim/right_resp_img.png,"[-0.5, 0]",right,stim/gold_coin.png,gold,,,,,training,,,gold,deval,,,,,0.0,0.0,0.0,0.0,1.0,1.0,3.0,1.0,,,,,,,,,0.0,training_resp,,236.9134623252321,1.7648253549123183,3.0,,right,gold,0.0,244.0,1.0,right,2023_Oct_09_1007,habits_v_MRI,5.0,40.0,1.0,5.0,30.0,15.0,5.0,15.0,30.0,30.0,60.0,RR,60.09620434555325,
20.0,1.0,resp2,stim/right_resp_img.png,"[-0.5, 0]",right,stim/gold_coin.png,gold,,,,,training,,,gold,deval,,,,,0.0,0.0,0.0,0.0,1.0,1.0,3.0,1.0,,,,,,,,,0.0,training_resp,,238.39657961810008,3.248074902454391,3.0,,right,gold,0.0,244.0,1.0,right,2023_Oct_09_1007,habits_v_MRI,5.0,40.0,1.0,5.0,30.0,15.0,5.0,15.0,30.0,30.0,60.0,RR,60.09620434555325,
20.0,1.0,resp2,stim/right_resp_img.png,"[-0.5, 0]",right,stim/gold_coin.png,gold,,,,,training,,,gold,deval,,,,,0.0,0.0,0.0,0.0,1.0,1.0,3.0,1.0,,,,,,,,,0.0,training_resp,,239.76330955780577,4.614661444094963,3.0,,right,gold,0.0,244.0,1.0,right,2023_Oct_09_1007,habits_v_MRI,5.0,40.0,1.0,5.0,30.0,15.0,5.0,15.0,30.0,30.0,60.0,RR,60.09620434555325,
20.0,1.0,resp2,stim/right_resp_img.png,"[-0.5, 0]",right,stim/gold_coin.png,gold,,,,,training,,,gold,deval,,,,,0.0,0.0,0.0,0.0,1.0,1.0,3.0,1.0,,,,,,,,,0.0,training_resp,,243.6296296839137,8.481110892491415,3.0,,right,gold,0.0,244.0,1.0,right,2023_Oct_09_1007,habits_v_MRI,5.0,40.0,1.0,5.0,30.0,15.0,5.0,15.0,30.0,30.0,60.0,RR,60.09620434555325,
20.0,1.0,resp2,stim/right_resp_img.png,"[-0.5, 0]",right,stim/gold_coin.png,gold,,,,,training,,,gold,deval,,,,,0.0,0.0,0.0,0.0,1.0,1.0,3.0,1.0,,,,,,,,,0.0,training_resp,,245.1296084234491,9.981043592095377,3.0,8.0,right,gold,1.0,244.0,1.0,right,2023_Oct_09_1007,habits_v_MRI,5.0,40.0,1.0,5.0,30.0,15.0,5.0,15.0,30.0,30.0,60.0,RR,60.09620434555325,
20.0,1.0,resp2,stim/right_resp_img.png,"[-0.5, 0]",right,stim/gold_coin.png,gold,,,,,training,,,gold,deval,,,,,0.0,0.0,0.0,0.0,1.0,1.0,3.0,1.0,,,,,,,,,0.0,training_resp,,246.06278256245423,10.91431479610037,3.0,,right,gold,0.0,244.0,1.0,right,2023_Oct_09_1007,habits_v_MRI,5.0,40.0,1.0,5.0,30.0,15.0,5.0,15.0,30.0,30.0,60.0,RR,60.09620434555325,
20.0,1.0,resp2,stim/right_resp_img.png,"[-0.5, 0]",right,stim/gold_coin.png,gold,,,,,training,,,gold,deval,,,,,0.0,0.0,0.0,0.0,1.0,1.0,3.0,1.0,,,,,,,,,0.0,training_resp,,246.77948891045529,11.63099621795118,3.0,,right,gold,0.0,244.0,1.0,right,2023_Oct_09_1007,habits_v_MRI,5.0,40.0,1.0,5.0,30.0,15.0,5.0,15.0,30.0,30.0,60.0,RR,60.09620434555325,
20.0,1.0,resp2,stim/right_resp_img.png,"[-0.5, 0]",right,stim/gold_coin.png,gold,,,,,training,,,gold,deval,,,,,0.0,0.0,0.0,0.0,1.0,1.0,3.0,1.0,,,,,,,,,0.0,training_resp,,247.47926343232396,12.330828509642744,3.0,,right,gold,0.0,244.0,1.0,right,2023_Oct_09_1007,habits_v_MRI,5.0,40.0,1.0,5.0,30.0,15.0,5.0,15.0,30.0,30.0,60.0,RR,60.09620434555325,
20.0,1.0,resp2,stim/right_resp_img.png,"[-0.5, 0]",right,stim/gold_coin.png,gold,,,,,training,,,gold,deval,,,,,0.0,0.0,0.0,0.0,1.0,1.0,3.0,1.0,,,,,,,,,0.0,training_resp,,248.19605013006367,13.047565355314871,3.0,,right,gold,0.0,244.0,1.0,right,2023_Oct_09_1007,habits_v_MRI,5.0,40.0,1.0,5.0,30.0,15.0,5.0,15.0,30.0,30.0,60.0,RR,60.09620434555325,
20.0,1.0,resp2,stim/right_resp_img.png,"[-0.5, 0]",right,stim/gold_coin.png,gold,,,,,training,,,gold,deval,,,,,0.0,0.0,0.0,0.0,1.0,1.0,3.0,1.0,,,,,,,,,0.0,training_resp,,249.36251039931085,14.21405788185075,3.0,,right,gold,0.0,244.0,1.0,right,2023_Oct_09_1007,habits_v_MRI,5.0,40.0,1.0,5.0,30.0,15.0,5.0,15.0,30.0,30.0,60.0,RR,60.09620434555325,
20.0,1.0,resp2,stim/right_resp_img.png,"[-0.5, 0]",right,stim/gold_coin.png,gold,,,,,training,,,gold,deval,,,,,0.0,0.0,0.0,0.0,1.0,1.0,3.0,1.0,,,,,,,,,0.0,training_resp,,250.09589227486867,14.947385506588034,3.0,,right,gold,0.0,244.0,1.0,right,2023_Oct_09_1007,habits_v_MRI,5.0,40.0,1.0,5.0,30.0,15.0,5.0,15.0,30.0,30.0,60.0,RR,60.09620434555325,
20.0,1.0,resp2,stim/right_resp_img.png,"[-0.5, 0]",right,stim/gold_coin.png,gold,,,,,training,,,gold,deval,,,,,0.0,0.0,0.0,0.0,1.0,1.0,3.0,1.0,,,,,,,,,0.0,training_resp,,250.829181484296,15.680705800186844,3.0,,right,gold,0.0,244.0,1.0,right,2023_Oct_09_1007,habits_v_MRI,5.0,40.0,1.0,5.0,30.0,15.0,5.0,15.0,30.0,30.0,60.0,RR,60.09620434555325,
20.0,1.0,resp2,stim/right_resp_img.png,"[-0.5, 0]",right,stim/gold_coin.png,gold,,,,,training,,,gold,deval,,,,,0.0,0.0,0.0,0.0,1.0,1.0,3.0,1.0,,,,,,,,,0.0,training_resp,,251.9792216444621,16.830661505111493,3.0,11.0,right,gold,1.0,244.0,1.0,right,2023_Oct_09_1007,habits_v_MRI,5.0,40.0,1.0,5.0,30.0,15.0,5.0,15.0,30.0,30.0,60.0,RR,60.09620434555325,
20.0,1.0,resp2,stim/right_resp_img.png,"[-0.5, 0]",right,stim/gold_coin.png,gold,,,,,training,,,gold,deval,,,,,0.0,0.0,0.0,0.0,1.0,1.0,3.0,1.0,,,,,,,,,0.0,training_resp,,252.5956402285956,17.44720559916459,3.0,,right,gold,0.0,244.0,1.0,right,2023_Oct_09_1007,habits_v_MRI,5.0,40.0,1.0,5.0,30.0,15.0,5.0,15.0,30.0,30.0,60.0,RR,60.09620434555325,
20.0,1.0,resp2,stim/right_resp_img.png,"[-0.5, 0]",right,stim/gold_coin.png,gold,,,,,training,,,gold,deval,,,,,0.0,0.0,0.0,0.0,1.0,1.0,3.0,1.0,,,,,,,,,0.0,training_resp,,253.19570996286348,18.0472043674672,3.0,,right,gold,0.0,244.0,1.0,right,2023_Oct_09_1007,habits_v_MRI,5.0,40.0,1.0,5.0,30.0,15.0,5.0,15.0,30.0,30.0,60.0,RR,60.09620434555325,
20.0,1.0,resp2,stim/right_resp_img.png,"[-0.5, 0]",right,stim/gold_coin.png,gold,,,,,training,,,gold,deval,,,,,0.0,0.0,0.0,0.0,1.0,1.0,3.0,1.0,,,,,,,,,0.0,training_resp,,254.11233701661692,18.96387100976426,3.0,,right,gold,0.0,244.0,1.0,right,2023_Oct_09_1007,habits_v_MRI,5.0,40.0,1.0,5.0,30.0,15.0,5.0,15.0,30.0,30.0,60.0,RR,60.09620434555325,
20.0,1.0,resp2,stim/right_resp_img.png,"[-0.5, 0]",right,stim/gold_coin.png,gold,,,,,training,,,gold,deval,,,,,0.0,0.0,0.0,0.0,1.0,1.0,3.0,1.0,,,,,,,,,0.0,training_resp,,254.8623240403831,19.713833400746807,3.0,,right,gold,0.0,244.0,1.0,right,2023_Oct_09_1007,habits_v_MRI,5.0,40.0,1.0,5.0,30.0,15.0,5.0,15.0,30.0,30.0,60.0,RR,60.09620434555325,
20.0,1.0,resp2,stim/right_resp_img.png,"[-0.5, 0]",right,stim/gold_coin.png,gold,,,,,training,,,gold,deval,,,,,0.0,0.0,0.0,0.0,1.0,1.0,3.0,1.0,,,,,,,,,0.0,training_resp,,255.512586335768,20.363808020134456,3.0,,right,gold,0.0,244.0,1.0,right,2023_Oct_09_1007,habits_v_MRI,5.0,40.0,1.0,5.0,30.0,15.0,5.0,15.0,30.0,30.0,60.0,RR,60.09620434555325,
20.0,1.0,resp2,stim/right_resp_img.png,"[-0.5, 0]",right,stim/gold_coin.png,gold,,,,,training,,,gold,deval,,,,,0.0,0.0,0.0,0.0,1.0,1.0,3.0,1.0,,,,,,,,,0.0,training_resp,,256.6455436474644,21.497053007711656,3.0,,right,gold,0.0,244.0,1.0,right,2023_Oct_09_1007,habits_v_MRI,5.0,40.0,1.0,5.0,30.0,15.0,5.0,15.0,30.0,30.0,60.0,RR,60.09620434555325,
20.0,1.0,resp2,stim/right_resp_img.png,"[-0.5, 0]",right,stim/gold_coin.png,gold,,,,,training,,,gold,deval,,,,,0.0,0.0,0.0,0.0,1.0,1.0,3.0,1.0,,,,,,,,,0.0,training_resp,,257.24552599398885,22.0970312487334,3.0,,right,gold,0.0,244.0,1.0,right,2023_Oct_09_1007,habits_v_MRI,5.0,40.0,1.0,5.0,30.0,15.0,5.0,15.0,30.0,30.0,60.0,RR,60.09620434555325,
20.0,1.0,resp2,stim/right_resp_img.png,"[-0.5, 0]",right,stim/gold_coin.png,gold,,,,,training,,,gold,deval,,,,,0.0,0.0,0.0,0.0,1.0,1.0,3.0,1.0,,,,,,,,,0.0,training_resp,,258.2954241343541,23.146944638108835,3.0,,right,gold,0.0,244.0,1.0,right,2023_Oct_09_1007,habits_v_MRI,5.0,40.0,1.0,5.0,30.0,15.0,5.0,15.0,30.0,30.0,60.0,RR,60.09620434555325,
20.0,1.0,resp2,stim/right_resp_img.png,"[-0.5, 0]",right,stim/gold_coin.png,gold,,,,,training,,,gold,deval,,,,,0.0,0.0,0.0,0.0,1.0,1.0,3.0,1.0,,,,,,,,,0.0,training_resp,,259.3620960403932,24.21357314346824,3.0,,right,gold,0.0,244.0,1.0,right,2023_Oct_09_1007,habits_v_MRI,5.0,40.0,1.0,5.0,30.0,15.0,5.0,15.0,30.0,30.0,60.0,RR,60.09620434555325,
20.0,1.0,resp2,stim/right_resp_img.png,"[-0.5, 0]",right,stim/gold_coin.png,gold,,,,,training,,,gold,deval,,,,,0.0,0.0,0.0,0.0,1.0,1.0,3.0,1.0,,,,,,,,,0.0,training_resp,,259.9453691357048,24.796873217565008,3.0,,right,gold,0.0,244.0,1.0,right,2023_Oct_09_1007,habits_v_MRI,5.0,40.0,1.0,5.0,30.0,15.0,5.0,15.0,30.0,30.0,60.0,RR,60.09620434555325,
20.0,1.0,resp2,stim/right_resp_img.png,"[-0.5, 0]",right,stim/gold_coin.png,gold,,,,,training,,,gold,deval,,,,,0.0,0.0,0.0,0.0,1.0,1.0,3.0,1.0,,,,,,,,,0.0,training_resp,,260.57868934143335,25.43019166367594,3.0,12.0,right,gold,1.0,244.0,1.0,right,2023_Oct_09_1007,habits_v_MRI,5.0,40.0,1.0,5.0,30.0,15.0,5.0,15.0,30.0,30.0,60.0,RR,60.09620434555325,
20.0,1.0,resp2,stim/right_resp_img.png,"[-0.5, 0]",right,stim/gold_coin.png,gold,,,,,training,,,gold,deval,,,,,0.0,0.0,0.0,0.0,1.0,1.0,3.0,1.0,,,,,,,,,0.0,training_resp,,262.0285582157085,26.880036491784267,3.0,,right,gold,0.0,244.0,1.0,right,2023_Oct_09_1007,habits_v_MRI,5.0,40.0,1.0,5.0,30.0,15.0,5.0,15.0,30.0,30.0,60.0,RR,60.09620434555325,
20.0,1.0,resp2,stim/right_resp_img.png,"[-0.5, 0]",right,stim/gold_coin.png,gold,,,,,training,,,gold,deval,,,,,0.0,0.0,0.0,0.0,1.0,1.0,3.0,1.0,,,,,,,,,0.0,training_resp,,263.0618010625476,27.913315114798024,3.0,,right,gold,0.0,244.0,1.0,right,2023_Oct_09_1007,habits_v_MRI,5.0,40.0,1.0,5.0,30.0,15.0,5.0,15.0,30.0,30.0,60.0,RR,60.09620434555325,
20.0,1.0,resp2,stim/right_resp_img.png,"[-0.5, 0]",right,stim/gold_coin.png,gold,,,,,training,,,gold,deval,,,,,0.0,0.0,0.0,0.0,1.0,1.0,3.0,1.0,,,,,,,,,0.0,training_resp,,263.7617764590541,28.61325092287734,3.0,,right,gold,0.0,244.0,1.0,right,2023_Oct_09_1007,habits_v_MRI,5.0,40.0,1.0,5.0,30.0,15.0,5.0,15.0,30.0,30.0,60.0,RR,60.09620434555325,
20.0,1.0,resp2,stim/right_resp_img.png,"[-0.5, 0]",right,stim/gold_coin.png,gold,,,,,training,,,gold,deval,,,,,0.0,0.0,0.0,0.0,1.0,1.0,3.0,1.0,,,,,,,,,0.0,training_resp,,264.47843002248555,29.32992149470374,3.0,,right,gold,0.0,244.0,1.0,right,2023_Oct_09_1007,habits_v_MRI,5.0,40.0,1.0,5.0,30.0,15.0,5.0,15.0,30.0,30.0,60.0,RR,60.09620434555325,
20.0,1.0,resp2,stim/right_resp_img.png,"[-0.5, 0]",right,stim/gold_coin.png,gold,,,,,training,,,gold,deval,,,,,0.0,0.0,0.0,0.0,1.0,1.0,3.0,1.0,,,,,,,,,0.0,training_resp,,265.0283400394256,29.879837083281014,3.0,,right,gold,0.0,244.0,1.0,right,2023_Oct_09_1007,habits_v_MRI,5.0,40.0,1.0,5.0,30.0,15.0,5.0,15.0,30.0,30.0,60.0,RR,60.09620434555325,
20.0,1.0,resp2,stim/right_resp_img.png,"[-0.5, 0]",right,stim/gold_coin.png,gold,,,,,training,,,gold,deval,,,,,0.0,0.0,0.0,0.0,1.0,1.0,3.0,1.0,,,,,,,,,0.0,training_resp,,265.7785077037988,30.63000269490294,3.0,,right,gold,0.0,244.0,1.0,right,2023_Oct_09_1007,habits_v_MRI,5.0,40.0,1.0,5.0,30.0,15.0,5.0,15.0,30.0,30.0,60.0,RR,60.09620434555325,
20.0,1.0,resp2,stim/right_resp_img.png,"[-0.5, 0]",right,stim/gold_coin.png,gold,,,,,training,,,gold,deval,,,,,0.0,0.0,0.0,0.0,1.0,1.0,3.0,1.0,,,,,,,,,0.0,training_resp,,266.42828790005296,31.279798140050843,3.0,,right,gold,0.0,244.0,1.0,right,2023_Oct_09_1007,habits_v_MRI,5.0,40.0,1.0,5.0,30.0,15.0,5.0,15.0,30.0,30.0,60.0,RR,60.09620434555325,
20.0,1.0,resp2,stim/right_resp_img.png,"[-0.5, 0]",right,stim/gold_coin.png,gold,,,,,training,,,gold,deval,,,,,0.0,0.0,0.0,0.0,1.0,1.0,3.0,1.0,,,,,,,,,0.0,training_resp,,266.9616810362786,31.81313233356923,3.0,,right,gold,0.0,244.0,1.0,right,2023_Oct_09_1007,habits_v_MRI,5.0,40.0,1.0,5.0,30.0,15.0,5.0,15.0,30.0,30.0,60.0,RR,60.09620434555325,
20.0,1.0,resp2,stim/right_resp_img.png,"[-0.5, 0]",right,stim/gold_coin.png,gold,,,,,training,,,gold,deval,,,,,0.0,0.0,0.0,0.0,1.0,1.0,3.0,1.0,,,,,,,,,0.0,training_resp,,267.928281595232,32.77972937352024,3.0,,right,gold,0.0,244.0,1.0,right,2023_Oct_09_1007,habits_v_MRI,5.0,40.0,1.0,5.0,30.0,15.0,5.0,15.0,30.0,30.0,60.0,RR,60.09620434555325,
20.0,1.0,resp2,stim/right_resp_img.png,"[-0.5, 0]",right,stim/gold_coin.png,gold,,,,,training,,,gold,deval,,,,,0.0,0.0,0.0,0.0,1.0,1.0,3.0,1.0,,,,,,,,,0.0,training_resp,,268.9282355553005,33.77973259915598,3.0,,right,gold,0.0,244.0,1.0,right,2023_Oct_09_1007,habits_v_MRI,5.0,40.0,1.0,5.0,30.0,15.0,5.0,15.0,30.0,30.0,60.0,RR,60.09620434555325,
20.0,1.0,resp2,stim/right_resp_img.png,"[-0.5, 0]",right,stim/gold_coin.png,gold,,,,,training,,,gold,deval,,,,,0.0,0.0,0.0,0.0,1.0,1.0,3.0,1.0,,,,,,,,,0.0,training_resp,,270.0947568200063,34.946264714119025,3.0,,right,gold,0.0,244.0,1.0,right,2023_Oct_09_1007,habits_v_MRI,5.0,40.0,1.0,5.0,30.0,15.0,5.0,15.0,30.0,30.0,60.0,RR,60.09620434555325,
20.0,1.0,resp2,stim/right_resp_img.png,"[-0.5, 0]",right,stim/gold_coin.png,gold,,,,,training,,,gold,deval,,,,,0.0,0.0,0.0,0.0,1.0,1.0,3.0,1.0,,,,,,,,,0.0,training_resp,,271.07814082165714,35.92958859994542,3.0,19.0,right,gold,1.0,244.0,1.0,right,2023_Oct_09_1007,habits_v_MRI,5.0,40.0,1.0,5.0,30.0,15.0,5.0,15.0,30.0,30.0,60.0,RR,60.09620434555325,
20.0,1.0,resp2,stim/right_resp_img.png,"[-0.5, 0]",right,stim/gold_coin.png,gold,,,,,training,,,gold,deval,,,,,0.0,0.0,0.0,0.0,1.0,1.0,3.0,1.0,,,,,,,,,0.0,training_resp,,272.4113680970622,37.26285077189095,3.0,,right,gold,0.0,244.0,1.0,right,2023_Oct_09_1007,habits_v_MRI,5.0,40.0,1.0,5.0,30.0,15.0,5.0,15.0,30.0,30.0,60.0,RR,60.09620434555325,
20.0,1.0,resp2,stim/right_resp_img.png,"[-0.5, 0]",right,stim/gold_coin.png,gold,,,,,training,,,gold,deval,,,,,0.0,0.0,0.0,0.0,1.0,1.0,3.0,1.0,,,,,,,,,0.0,training_resp,,272.99460336356424,37.8461329578422,3.0,,right,gold,0.0,244.0,1.0,right,2023_Oct_09_1007,habits_v_MRI,5.0,40.0,1.0,5.0,30.0,15.0,5.0,15.0,30.0,30.0,60.0,RR,60.09620434555325,
20.0,1.0,resp2,stim/right_resp_img.png,"[-0.5, 0]",right,stim/gold_coin.png,gold,,,,,training,,,gold,deval,,,,,0.0,0.0,0.0,0.0,1.0,1.0,3.0,1.0,,,,,,,,,0.0,training_resp,,273.9779468969209,38.82939203607384,3.0,,right,gold,0.0,244.0,1.0,right,2023_Oct_09_1007,habits_v_MRI,5.0,40.0,1.0,5.0,30.0,15.0,5.0,15.0,30.0,30.0,60.0,RR,60.09620434555325,
20.0,1.0,resp2,stim/right_resp_img.png,"[-0.5, 0]",right,stim/gold_coin.png,gold,,,,,training,,,gold,deval,,,,,0.0,0.0,0.0,0.0,1.0,1.0,3.0,1.0,,,,,,,,,0.0,training_resp,,275.3113184502581,40.16269320982974,3.0,,right,gold,0.0,244.0,1.0,right,2023_Oct_09_1007,habits_v_MRI,5.0,40.0,1.0,5.0,30.0,15.0,5.0,15.0,30.0,30.0,60.0,RR,60.09620434555325,
20.0,1.0,resp2,stim/right_resp_img.png,"[-0.5, 0]",right,stim/gold_coin.png,gold,,,,,training,,,gold,deval,,,,,0.0,0.0,0.0,0.0,1.0,1.0,3.0,1.0,,,,,,,,,0.0,training_resp,,275.96114322007634,40.81262824090663,3.0,,right,gold,0.0,244.0,1.0,right,2023_Oct_09_1007,habits_v_MRI,5.0,40.0,1.0,5.0,30.0,15.0,5.0,15.0,30.0,30.0,60.0,RR,60.09620434555325,
20.0,1.0,resp2,stim/right_resp_img.png,"[-0.5, 0]",right,stim/gold_coin.png,gold,,,,,training,,,gold,deval,,,,,0.0,0.0,0.0,0.0,1.0,1.0,3.0,1.0,,,,,,,,,0.0,training_resp,,276.6111503900029,41.46263599721715,3.0,,right,gold,0.0,244.0,1.0,right,2023_Oct_09_1007,habits_v_MRI,5.0,40.0,1.0,5.0,30.0,15.0,5.0,15.0,30.0,30.0,60.0,RR,60.09620434555325,
20.0,1.0,resp2,stim/right_resp_img.png,"[-0.5, 0]",right,stim/gold_coin.png,gold,,,,,training,,,gold,deval,,,,,0.0,0.0,0.0,0.0,1.0,1.0,3.0,1.0,,,,,,,,,0.0,training_resp,,277.2112963687396,42.0626010420965,3.0,,right,gold,0.0,244.0,1.0,right,2023_Oct_09_1007,habits_v_MRI,5.0,40.0,1.0,5.0,30.0,15.0,5.0,15.0,30.0,30.0,60.0,RR,60.09620434555325,
20.0,1.0,resp2,stim/right_resp_img.png,"[-0.5, 0]",right,stim/gold_coin.png,gold,,,,,training,,,gold,deval,,,,,0.0,0.0,0.0,0.0,1.0,1.0,3.0,1.0,,,,,,,,,0.0,training_resp,,277.82760762411635,42.67912842100486,3.0,,right,gold,0.0,244.0,1.0,right,2023_Oct_09_1007,habits_v_MRI,5.0,40.0,1.0,5.0,30.0,15.0,5.0,15.0,30.0,30.0,60.0,RR,60.09620434555325,
20.0,1.0,resp2,stim/right_resp_img.png,"[-0.5, 0]",right,stim/gold_coin.png,gold,,,,,training,,,gold,deval,,,,,0.0,0.0,0.0,0.0,1.0,1.0,3.0,1.0,,,,,,,,,0.0,training_resp,,278.41121531510726,43.26250532607082,3.0,,right,gold,0.0,244.0,1.0,right,2023_Oct_09_1007,habits_v_MRI,5.0,40.0,1.0,5.0,30.0,15.0,5.0,15.0,30.0,30.0,60.0,RR,60.09620434555325,
20.0,1.0,resp2,stim/right_resp_img.png,"[-0.5, 0]",right,stim/gold_coin.png,gold,,,,,training,,,gold,deval,,,,,0.0,0.0,0.0,0.0,1.0,1.0,3.0,1.0,,,,,,,,,0.0,training_resp,,279.4109997780761,44.262413246324286,3.0,,right,gold,0.0,244.0,1.0,right,2023_Oct_09_1007,habits_v_MRI,5.0,40.0,1.0,5.0,30.0,15.0,5.0,15.0,30.0,30.0,60.0,RR,60.09620434555325,
20.0,1.0,resp2,stim/right_resp_img.png,"[-0.5, 0]",right,stim/gold_coin.png,gold,,,,,training,,,gold,deval,,,,,0.0,0.0,0.0,0.0,1.0,1.0,3.0,1.0,,,,,,,,,0.0,ITI_start,23.333333333333336,279.82837651949376,44.679088539327495,,,,,,244.0,1.0,right,2023_Oct_09_1007,habits_v_MRI,5.0,40.0,1.0,5.0,30.0,15.0,5.0,15.0,30.0,30.0,60.0,RR,60.09620434555325,
20.0,0.0,resp1,stim/left_resp_img.png,"[0.5, 0]",left,stim/silver_coin.png,gold,,,,,training,,,silver,val,,,,,0.0,0.0,0.0,0.0,2.0,0.0,4.0,0.0,,,,,,,,,0.0,training_period_start,37.5,303.19615247356705,0.0,4.0,21.0,,,,244.0,1.0,right,2023_Oct_09_1007,habits_v_MRI,5.0,40.0,1.0,5.0,30.0,15.0,5.0,15.0,30.0,30.0,60.0,RR,60.09620434555325,
20.0,0.0,resp1,stim/left_resp_img.png,"[0.5, 0]",left,stim/silver_coin.png,gold,,,,,training,,,silver,val,,,,,0.0,0.0,0.0,0.0,2.0,0.0,4.0,0.0,,,,,,,,,0.0,training_resp,,304.54294274607673,1.3649467007489875,4.0,,left,silver,0.0,244.0,1.0,right,2023_Oct_09_1007,habits_v_MRI,5.0,40.0,1.0,5.0,30.0,15.0,5.0,15.0,30.0,30.0,60.0,RR,60.09620434555325,
20.0,0.0,resp1,stim/left_resp_img.png,"[0.5, 0]",left,stim/silver_coin.png,gold,,,,,training,,,silver,val,,,,,0.0,0.0,0.0,0.0,2.0,0.0,4.0,0.0,,,,,,,,,0.0,training_resp,,305.40952562214807,2.231614032178186,4.0,,left,silver,0.0,244.0,1.0,right,2023_Oct_09_1007,habits_v_MRI,5.0,40.0,1.0,5.0,30.0,15.0,5.0,15.0,30.0,30.0,60.0,RR,60.09620434555325,
20.0,0.0,resp1,stim/left_resp_img.png,"[0.5, 0]",left,stim/silver_coin.png,gold,,,,,training,,,silver,val,,,,,0.0,0.0,0.0,0.0,2.0,0.0,4.0,0.0,,,,,,,,,0.0,training_resp,,306.2928142303135,3.114864224917256,4.0,,left,silver,0.0,244.0,1.0,right,2023_Oct_09_1007,habits_v_MRI,5.0,40.0,1.0,5.0,30.0,15.0,5.0,15.0,30.0,30.0,60.0,RR,60.09620434555325,
20.0,0.0,resp1,stim/left_resp_img.png,"[0.5, 0]",left,stim/silver_coin.png,gold,,,,,training,,,silver,val,,,,,0.0,0.0,0.0,0.0,2.0,0.0,4.0,0.0,,,,,,,,,0.0,training_resp,,307.07606609456707,3.89815773034934,4.0,,left,silver,0.0,244.0,1.0,right,2023_Oct_09_1007,habits_v_MRI,5.0,40.0,1.0,5.0,30.0,15.0,5.0,15.0,30.0,30.0,60.0,RR,60.09620434555325,
20.0,0.0,resp1,stim/left_resp_img.png,"[0.5, 0]",left,stim/silver_coin.png,gold,,,,,training,,,silver,val,,,,,0.0,0.0,0.0,0.0,2.0,0.0,4.0,0.0,,,,,,,,,0.0,training_resp,,307.676034071832,4.498139490257017,4.0,,left,silver,0.0,244.0,1.0,right,2023_Oct_09_1007,habits_v_MRI,5.0,40.0,1.0,5.0,30.0,15.0,5.0,15.0,30.0,30.0,60.0,RR,60.09620434555325,
20.0,0.0,resp1,stim/left_resp_img.png,"[0.5, 0]",left,stim/silver_coin.png,gold,,,,,training,,,silver,val,,,,,0.0,0.0,0.0,0.0,2.0,0.0,4.0,0.0,,,,,,,,,0.0,training_resp,,308.2426568588708,5.064725034870207,4.0,,left,silver,0.0,244.0,1.0,right,2023_Oct_09_1007,habits_v_MRI,5.0,40.0,1.0,5.0,30.0,15.0,5.0,15.0,30.0,30.0,60.0,RR,60.09620434555325,
20.0,0.0,resp1,stim/left_resp_img.png,"[0.5, 0]",left,stim/silver_coin.png,gold,,,,,training,,,silver,val,,,,,0.0,0.0,0.0,0.0,2.0,0.0,4.0,0.0,,,,,,,,,0.0,training_resp,,308.8925775208045,5.714686751365662,4.0,,left,silver,0.0,244.0,1.0,right,2023_Oct_09_1007,habits_v_MRI,5.0,40.0,1.0,5.0,30.0,15.0,5.0,15.0,30.0,30.0,60.0,RR,60.09620434555325,
20.0,0.0,resp1,stim/left_resp_img.png,"[0.5, 0]",left,stim/silver_coin.png,gold,,,,,training,,,silver,val,,,,,0.0,0.0,0.0,0.0,2.0,0.0,4.0,0.0,,,,,,,,,0.0,training_resp,,309.4424969216343,6.26463254459668,4.0,,left,silver,0.0,244.0,1.0,right,2023_Oct_09_1007,habits_v_MRI,5.0,40.0,1.0,5.0,30.0,15.0,5.0,15.0,30.0,30.0,60.0,RR,60.09620434555325,
20.0,0.0,resp1,stim/left_resp_img.png,"[0.5, 0]",left,stim/silver_coin.png,gold,,,,,training,,,silver,val,,,,,0.0,0.0,0.0,0.0,2.0,0.0,4.0,0.0,,,,,,,,,0.0,training_resp,,309.95919546927325,6.781325227231719,4.0,,left,silver,0.0,244.0,1.0,right,2023_Oct_09_1007,habits_v_MRI,5.0,40.0,1.0,5.0,30.0,15.0,5.0,15.0,30.0,30.0,60.0,RR,60.09620434555325,
20.0,0.0,resp1,stim/left_resp_img.png,"[0.5, 0]",left,stim/silver_coin.png,gold,,,,,training,,,silver,val,,,,,0.0,0.0,0.0,0.0,2.0,0.0,4.0,0.0,,,,,,,,,0.0,training_resp,,310.4258765245322,7.247962002176791,4.0,,left,silver,0.0,244.0,1.0,right,2023_Oct_09_1007,habits_v_MRI,5.0,40.0,1.0,5.0,30.0,15.0,5.0,15.0,30.0,30.0,60.0,RR,60.09620434555325,
20.0,0.0,resp1,stim/left_resp_img.png,"[0.5, 0]",left,stim/silver_coin.png,gold,,,,,training,,,silver,val,,,,,0.0,0.0,0.0,0.0,2.0,0.0,4.0,0.0,,,,,,,,,0.0,training_resp,,310.9591746486258,7.781274202163331,4.0,,left,silver,0.0,244.0,1.0,right,2023_Oct_09_1007,habits_v_MRI,5.0,40.0,1.0,5.0,30.0,15.0,5.0,15.0,30.0,30.0,60.0,RR,60.09620434555325,
20.0,0.0,resp1,stim/left_resp_img.png,"[0.5, 0]",left,stim/silver_coin.png,gold,,,,,training,,,silver,val,,,,,0.0,0.0,0.0,0.0,2.0,0.0,4.0,0.0,,,,,,,,,0.0,training_resp,,311.49243494379334,8.314572032890283,4.0,,left,silver,0.0,244.0,1.0,right,2023_Oct_09_1007,habits_v_MRI,5.0,40.0,1.0,5.0,30.0,15.0,5.0,15.0,30.0,30.0,60.0,RR,60.09620434555325,
20.0,0.0,resp1,stim/left_resp_img.png,"[0.5, 0]",left,stim/silver_coin.png,gold,,,,,training,,,silver,val,,,,,0.0,0.0,0.0,0.0,2.0,0.0,4.0,0.0,,,,,,,,,0.0,training_resp,,312.009152259212,8.831214570207521,4.0,,left,silver,0.0,244.0,1.0,right,2023_Oct_09_1007,habits_v_MRI,5.0,40.0,1.0,5.0,30.0,15.0,5.0,15.0,30.0,30.0,60.0,RR,60.09620434555325,
20.0,0.0,resp1,stim/left_resp_img.png,"[0.5, 0]",left,stim/silver_coin.png,gold,,,,,training,,,silver,val,,,,,0.0,0.0,0.0,0.0,2.0,0.0,4.0,0.0,,,,,,,,,0.0,training_resp,,312.5590605166508,9.381190567859448,4.0,,left,silver,0.0,244.0,1.0,right,2023_Oct_09_1007,habits_v_MRI,5.0,40.0,1.0,5.0,30.0,15.0,5.0,15.0,30.0,30.0,60.0,RR,60.09620434555325,
20.0,0.0,resp1,stim/left_resp_img.png,"[0.5, 0]",left,stim/silver_coin.png,gold,,,,,training,,,silver,val,,,,,0.0,0.0,0.0,0.0,2.0,0.0,4.0,0.0,,,,,,,,,0.0,training_resp,,313.1091066005174,9.931165979010984,4.0,,left,silver,0.0,244.0,1.0,right,2023_Oct_09_1007,habits_v_MRI,5.0,40.0,1.0,5.0,30.0,15.0,5.0,15.0,30.0,30.0,60.0,RR,60.09620434555325,
20.0,0.0,resp1,stim/left_resp_img.png,"[0.5, 0]",left,stim/silver_coin.png,gold,,,,,training,,,silver,val,,,,,0.0,0.0,0.0,0.0,2.0,0.0,4.0,0.0,,,,,,,,,0.0,training_resp,,313.6423833174631,10.46444152307231,4.0,,left,silver,0.0,244.0,1.0,right,2023_Oct_09_1007,habits_v_MRI,5.0,40.0,1.0,5.0,30.0,15.0,5.0,15.0,30.0,30.0,60.0,RR,60.09620434555325,
20.0,0.0,resp1,stim/left_resp_img.png,"[0.5, 0]",left,stim/silver_coin.png,gold,,,,,training,,,silver,val,,,,,0.0,0.0,0.0,0.0,2.0,0.0,4.0,0.0,,,,,,,,,0.0,training_resp,,314.17561223509256,10.99773436866235,4.0,,left,silver,0.0,244.0,1.0,right,2023_Oct_09_1007,habits_v_MRI,5.0,40.0,1.0,5.0,30.0,15.0,5.0,15.0,30.0,30.0,60.0,RR,60.09620434555325,
20.0,0.0,resp1,stim/left_resp_img.png,"[0.5, 0]",left,stim/silver_coin.png,gold,,,,,training,,,silver,val,,,,,0.0,0.0,0.0,0.0,2.0,0.0,4.0,0.0,,,,,,,,,0.0,training_resp,,314.609026983846,11.431063489057124,4.0,,left,silver,0.0,244.0,1.0,right,2023_Oct_09_1007,habits_v_MRI,5.0,40.0,1.0,5.0,30.0,15.0,5.0,15.0,30.0,30.0,60.0,RR,60.09620434555325,
20.0,0.0,resp1,stim/left_resp_img.png,"[0.5, 0]",left,stim/silver_coin.png,gold,,,,,training,,,silver,val,,,,,0.0,0.0,0.0,0.0,2.0,0.0,4.0,0.0,,,,,,,,,0.0,training_resp,,315.20882810326293,12.030955808470026,4.0,,left,silver,0.0,244.0,1.0,right,2023_Oct_09_1007,habits_v_MRI,5.0,40.0,1.0,5.0,30.0,15.0,5.0,15.0,30.0,30.0,60.0,RR,60.09620434555325,
20.0,0.0,resp1,stim/left_resp_img.png,"[0.5, 0]",left,stim/silver_coin.png,gold,,,,,training,,,silver,val,,,,,0.0,0.0,0.0,0.0,2.0,0.0,4.0,0.0,,,,,,,,,0.0,training_resp,,315.74220305820927,12.56430261163041,4.0,,left,silver,0.0,244.0,1.0,right,2023_Oct_09_1007,habits_v_MRI,5.0,40.0,1.0,5.0,30.0,15.0,5.0,15.0,30.0,30.0,60.0,RR,60.09620434555325,
20.0,0.0,resp1,stim/left_resp_img.png,"[0.5, 0]",left,stim/silver_coin.png,gold,,,,,training,,,silver,val,,,,,0.0,0.0,0.0,0.0,2.0,0.0,4.0,0.0,,,,,,,,,0.0,training_resp,,316.2590101073729,13.080935765057802,4.0,16.0,left,silver,1.0,244.0,1.0,right,2023_Oct_09_1007,habits_v_MRI,5.0,40.0,1.0,5.0,30.0,15.0,5.0,15.0,30.0,30.0,60.0,RR,60.09620434555325,
20.0,0.0,resp1,stim/left_resp_img.png,"[0.5, 0]",left,stim/silver_coin.png,gold,,,,,training,,,silver,val,,,,,0.0,0.0,0.0,0.0,2.0,0.0,4.0,0.0,,,,,,,,,0.0,training_resp,,316.79217509704176,13.614255002932625,4.0,,left,silver,0.0,244.0,1.0,right,2023_Oct_09_1007,habits_v_MRI,5.0,40.0,1.0,5.0,30.0,15.0,5.0,15.0,30.0,30.0,60.0,RR,60.09620434555325,
20.0,0.0,resp1,stim/left_resp_img.png,"[0.5, 0]",left,stim/silver_coin.png,gold,,,,,training,,,silver,val,,,,,0.0,0.0,0.0,0.0,2.0,0.0,4.0,0.0,,,,,,,,,0.0,training_resp,,317.3254248352023,14.147539051133208,4.0,,left,silver,0.0,244.0,1.0,right,2023_Oct_09_1007,habits_v_MRI,5.0,40.0,1.0,5.0,30.0,15.0,5.0,15.0,30.0,30.0,60.0,RR,60.09620434555325,
20.0,0.0,resp1,stim/left_resp_img.png,"[0.5, 0]",left,stim/silver_coin.png,gold,,,,,training,,,silver,val,,,,,0.0,0.0,0.0,0.0,2.0,0.0,4.0,0.0,,,,,,,,,0.0,training_resp,,317.8088154349243,14.630930530489422,4.0,,left,silver,0.0,244.0,1.0,right,2023_Oct_09_1007,habits_v_MRI,5.0,40.0,1.0,5.0,30.0,15.0,5.0,15.0,30.0,30.0,60.0,RR,60.09620434555325,
20.0,0.0,resp1,stim/left_resp_img.png,"[0.5, 0]",left,stim/silver_coin.png,gold,,,,,training,,,silver,val,,,,,0.0,0.0,0.0,0.0,2.0,0.0,4.0,0.0,,,,,,,,,0.0,training_resp,,318.3587515508989,15.180864887079224,4.0,,left,silver,0.0,244.0,1.0,right,2023_Oct_09_1007,habits_v_MRI,5.0,40.0,1.0,5.0,30.0,15.0,5.0,15.0,30.0,30.0,60.0,RR,60.09620434555325,
20.0,0.0,resp1,stim/left_resp_img.png,"[0.5, 0]",left,stim/silver_coin.png,gold,,,,,training,,,silver,val,,,,,0.0,0.0,0.0,0.0,2.0,0.0,4.0,0.0,,,,,,,,,0.0,training_resp,,318.8587710518623,15.680859168758616,4.0,,left,silver,0.0,244.0,1.0,right,2023_Oct_09_1007,habits_v_MRI,5.0,40.0,1.0,5.0,30.0,15.0,5.0,15.0,30.0,30.0,60.0,RR,60.09620434555325,
20.0,0.0,resp1,stim/left_resp_img.png,"[0.5, 0]",left,stim/silver_coin.png,gold,,,,,training,,,silver,val,,,,,0.0,0.0,0.0,0.0,2.0,0.0,4.0,0.0,,,,,,,,,0.0,training_resp,,319.40869485144503,16.23080554837361,4.0,,left,silver,0.0,244.0,1.0,right,2023_Oct_09_1007,habits_v_MRI,5.0,40.0,1.0,5.0,30.0,15.0,5.0,15.0,30.0,30.0,60.0,RR,60.09620434555325,
20.0,0.0,resp1,stim/left_resp_img.png,"[0.5, 0]",left,stim/silver_coin.png,gold,,,,,training,,,silver,val,,,,,0.0,0.0,0.0,0.0,2.0,0.0,4.0,0.0,,,,,,,,,0.0,training_resp,,319.8927091889782,16.71409703034442,4.0,,left,silver,0.0,244.0,1.0,right,2023_Oct_09_1007,habits_v_MRI,5.0,40.0,1.0,5.0,30.0,15.0,5.0,15.0,30.0,30.0,60.0,RR,60.09620434555325,
20.0,0.0,resp1,stim/left_resp_img.png,"[0.5, 0]",left,stim/silver_coin.png,gold,,,,,training,,,silver,val,,,,,0.0,0.0,0.0,0.0,2.0,0.0,4.0,0.0,,,,,,,,,0.0,training_resp,,320.4086652335245,17.230754230055027,4.0,,left,silver,0.0,244.0,1.0,right,2023_Oct_09_1007,habits_v_MRI,5.0,40.0,1.0,5.0,30.0,15.0,5.0,15.0,30.0,30.0,60.0,RR,60.09620434555325,
20.0,0.0,resp1,stim/left_resp_img.png,"[0.5, 0]",left,stim/silver_coin.png,gold,,,,,training,,,silver,val,,,,,0.0,0.0,0.0,0.0,2.0,0.0,4.0,0.0,,,,,,,,,0.0,training_resp,,320.9420038256794,17.764103965717368,4.0,,left,silver,0.0,244.0,1.0,right,2023_Oct_09_1007,habits_v_MRI,5.0,40.0,1.0,5.0,30.0,15.0,5.0,15.0,30.0,30.0,60.0,RR,60.09620434555325,
20.0,0.0,resp1,stim/left_resp_img.png,"[0.5, 0]",left,stim/silver_coin.png,gold,,,,,training,,,silver,val,,,,,0.0,0.0,0.0,0.0,2.0,0.0,4.0,0.0,,,,,,,,,0.0,training_resp,,321.4752570829587,18.297334349597804,4.0,,left,silver,0.0,244.0,1.0,right,2023_Oct_09_1007,habits_v_MRI,5.0,40.0,1.0,5.0,30.0,15.0,5.0,15.0,30.0,30.0,60.0,RR,60.09620434555325,
20.0,0.0,resp1,stim/left_resp_img.png,"[0.5, 0]",left,stim/silver_coin.png,gold,,,,,training,,,silver,val,,,,,0.0,0.0,0.0,0.0,2.0,0.0,4.0,0.0,,,,,,,,,0.0,training_resp,,322.09208709339146,18.914025947102346,4.0,,left,silver,0.0,244.0,1.0,right,2023_Oct_09_1007,habits_v_MRI,5.0,40.0,1.0,5.0,30.0,15.0,5.0,15.0,30.0,30.0,60.0,RR,60.09620434555325,
20.0,0.0,resp1,stim/left_resp_img.png,"[0.5, 0]",left,stim/silver_coin.png,gold,,,,,training,,,silver,val,,,,,0.0,0.0,0.0,0.0,2.0,0.0,4.0,0.0,,,,,,,,,0.0,training_resp,,322.6418510730145,19.46398083097301,4.0,,left,silver,0.0,244.0,1.0,right,2023_Oct_09_1007,habits_v_MRI,5.0,40.0,1.0,5.0,30.0,15.0,5.0,15.0,30.0,30.0,60.0,RR,60.09620434555325,
20.0,0.0,resp1,stim/left_resp_img.png,"[0.5, 0]",left,stim/silver_coin.png,gold,,,,,training,,,silver,val,,,,,0.0,0.0,0.0,0.0,2.0,0.0,4.0,0.0,,,,,,,,,0.0,training_resp,,323.2084234214853,20.03051065851469,4.0,,left,silver,0.0,244.0,1.0,right,2023_Oct_09_1007,habits_v_MRI,5.0,40.0,1.0,5.0,30.0,15.0,5.0,15.0,30.0,30.0,60.0,RR,60.09620434555325,
20.0,0.0,resp1,stim/left_resp_img.png,"[0.5, 0]",left,stim/silver_coin.png,gold,,,,,training,,,silver,val,,,,,0.0,0.0,0.0,0.0,2.0,0.0,4.0,0.0,,,,,,,,,0.0,training_resp,,323.775344441412,20.59725015820004,4.0,,left,silver,0.0,244.0,1.0,right,2023_Oct_09_1007,habits_v_MRI,5.0,40.0,1.0,5.0,30.0,15.0,5.0,15.0,30.0,30.0,60.0,RR,60.09620434555325,
20.0,0.0,resp1,stim/left_resp_img.png,"[0.5, 0]",left,stim/silver_coin.png,gold,,,,,training,,,silver,val,,,,,0.0,0.0,0.0,0.0,2.0,0.0,4.0,0.0,,,,,,,,,0.0,training_resp,,324.3419953802368,21.16387998312712,4.0,,left,silver,0.0,244.0,1.0,right,2023_Oct_09_1007,habits_v_MRI,5.0,40.0,1.0,5.0,30.0,15.0,5.0,15.0,30.0,30.0,60.0,RR,60.09620434555325,
20.0,0.0,resp1,stim/left_resp_img.png,"[0.5, 0]",left,stim/silver_coin.png,gold,,,,,training,,,silver,val,,,,,0.0,0.0,0.0,0.0,2.0,0.0,4.0,0.0,,,,,,,,,0.0,training_resp,,324.9251033772016,21.747177711338736,4.0,25.0,left,silver,1.0,244.0,1.0,right,2023_Oct_09_1007,habits_v_MRI,5.0,40.0,1.0,5.0,30.0,15.0,5.0,15.0,30.0,30.0,60.0,RR,60.09620434555325,
20.0,0.0,resp1,stim/left_resp_img.png,"[0.5, 0]",left,stim/silver_coin.png,gold,,,,,training,,,silver,val,,,,,0.0,0.0,0.0,0.0,2.0,0.0,4.0,0.0,,,,,,,,,0.0,training_resp,,325.87515421165153,22.69714819593355,4.0,,left,silver,0.0,244.0,1.0,right,2023_Oct_09_1007,habits_v_MRI,5.0,40.0,1.0,5.0,30.0,15.0,5.0,15.0,30.0,30.0,60.0,RR,60.09620434555325,
20.0,0.0,resp1,stim/left_resp_img.png,"[0.5, 0]",left,stim/silver_coin.png,gold,,,,,training,,,silver,val,,,,,0.0,0.0,0.0,0.0,2.0,0.0,4.0,0.0,,,,,,,,,0.0,training_resp,,326.8083268844057,23.630375706008635,4.0,,left,silver,0.0,244.0,1.0,right,2023_Oct_09_1007,habits_v_MRI,5.0,40.0,1.0,5.0,30.0,15.0,5.0,15.0,30.0,30.0,60.0,RR,60.09620434555325,
20.0,0.0,resp1,stim/left_resp_img.png,"[0.5, 0]",left,stim/silver_coin.png,gold,,,,,training,,,silver,val,,,,,0.0,0.0,0.0,0.0,2.0,0.0,4.0,0.0,,,,,,,,,0.0,training_resp,,327.3582835276611,24.180375456693582,4.0,,left,silver,0.0,244.0,1.0,right,2023_Oct_09_1007,habits_v_MRI,5.0,40.0,1.0,5.0,30.0,15.0,5.0,15.0,30.0,30.0,60.0,RR,60.09620434555325,
20.0,0.0,resp1,stim/left_resp_img.png,"[0.5, 0]",left,stim/silver_coin.png,gold,,,,,training,,,silver,val,,,,,0.0,0.0,0.0,0.0,2.0,0.0,4.0,0.0,,,,,,,,,0.0,training_resp,,327.92498666455504,24.7469718514476,4.0,,left,silver,0.0,244.0,1.0,right,2023_Oct_09_1007,habits_v_MRI,5.0,40.0,1.0,5.0,30.0,15.0,5.0,15.0,30.0,30.0,60.0,RR,60.09620434555325,
20.0,0.0,resp1,stim/left_resp_img.png,"[0.5, 0]",left,stim/silver_coin.png,gold,,,,,training,,,silver,val,,,,,0.0,0.0,0.0,0.0,2.0,0.0,4.0,0.0,,,,,,,,,0.0,training_resp,,328.4081854802789,25.23028708656784,4.0,,left,silver,0.0,244.0,1.0,right,2023_Oct_09_1007,habits_v_MRI,5.0,40.0,1.0,5.0,30.0,15.0,5.0,15.0,30.0,30.0,60.0,RR,60.09620434555325,
20.0,0.0,resp1,stim/left_resp_img.png,"[0.5, 0]",left,stim/silver_coin.png,gold,,,,,training,,,silver,val,,,,,0.0,0.0,0.0,0.0,2.0,0.0,4.0,0.0,,,,,,,,,0.0,training_resp,,328.941361906589,25.763510139193382,4.0,,left,silver,0.0,244.0,1.0,right,2023_Oct_09_1007,habits_v_MRI,5.0,40.0,1.0,5.0,30.0,15.0,5.0,15.0,30.0,30.0,60.0,RR,60.09620434555325,
20.0,0.0,resp1,stim/left_resp_img.png,"[0.5, 0]",left,stim/silver_coin.png,gold,,,,,training,,,silver,val,,,,,0.0,0.0,0.0,0.0,2.0,0.0,4.0,0.0,,,,,,,,,0.0,training_resp,,329.4913522733841,26.313489949097857,4.0,,left,silver,0.0,244.0,1.0,right,2023_Oct_09_1007,habits_v_MRI,5.0,40.0,1.0,5.0,30.0,15.0,5.0,15.0,30.0,30.0,60.0,RR,60.09620434555325,
20.0,0.0,resp1,stim/left_resp_img.png,"[0.5, 0]",left,stim/silver_coin.png,gold,,,,,training,,,silver,val,,,,,0.0,0.0,0.0,0.0,2.0,0.0,4.0,0.0,,,,,,,,,0.0,training_resp,,329.9747349554673,26.7968611944234,4.0,,left,silver,0.0,244.0,1.0,right,2023_Oct_09_1007,habits_v_MRI,5.0,40.0,1.0,5.0,30.0,15.0,5.0,15.0,30.0,30.0,60.0,RR,60.09620434555325,
20.0,0.0,resp1,stim/left_resp_img.png,"[0.5, 0]",left,stim/silver_coin.png,gold,,,,,training,,,silver,val,,,,,0.0,0.0,0.0,0.0,2.0,0.0,4.0,0.0,,,,,,,,,0.0,training_resp,,330.474668828072,27.296805917285383,4.0,,left,silver,0.0,244.0,1.0,right,2023_Oct_09_1007,habits_v_MRI,5.0,40.0,1.0,5.0,30.0,15.0,5.0,15.0,30.0,30.0,60.0,RR,60.09620434555325,
20.0,0.0,resp1,stim/left_resp_img.png,"[0.5, 0]",left,stim/silver_coin.png,gold,,,,,training,,,silver,val,,,,,0.0,0.0,0.0,0.0,2.0,0.0,4.0,0.0,,,,,,,,,0.0,training_resp,,330.94131674652454,27.763447677483786,4.0,,left,silver,0.0,244.0,1.0,right,2023_Oct_09_1007,habits_v_MRI,5.0,40.0,1.0,5.0,30.0,15.0,5.0,15.0,30.0,30.0,60.0,RR,60.09620434555325,
20.0,0.0,resp1,stim/left_resp_img.png,"[0.5, 0]",left,stim/silver_coin.png,gold,,,,,training,,,silver,val,,,,,0.0,0.0,0.0,0.0,2.0,0.0,4.0,0.0,,,,,,,,,0.0,training_resp,,331.3913143564714,28.213430625153705,4.0,,left,silver,0.0,244.0,1.0,right,2023_Oct_09_1007,habits_v_MRI,5.0,40.0,1.0,5.0,30.0,15.0,5.0,15.0,30.0,30.0,60.0,RR,60.09620434555325,
20.0,0.0,resp1,stim/left_resp_img.png,"[0.5, 0]",left,stim/silver_coin.png,gold,,,,,training,,,silver,val,,,,,0.0,0.0,0.0,0.0,2.0,0.0,4.0,0.0,,,,,,,,,0.0,training_resp,,331.8746773909079,28.6967414614046,4.0,,left,silver,0.0,244.0,1.0,right,2023_Oct_09_1007,habits_v_MRI,5.0,40.0,1.0,5.0,30.0,15.0,5.0,15.0,30.0,30.0,60.0,RR,60.09620434555325,
20.0,0.0,resp1,stim/left_resp_img.png,"[0.5, 0]",left,stim/silver_coin.png,gold,,,,,training,,,silver,val,,,,,0.0,0.0,0.0,0.0,2.0,0.0,4.0,0.0,,,,,,,,,0.0,training_resp,,332.9246535352431,29.746739892521877,4.0,,left,silver,0.0,244.0,1.0,right,2023_Oct_09_1007,habits_v_MRI,5.0,40.0,1.0,5.0,30.0,15.0,5.0,15.0,30.0,30.0,60.0,RR,60.09620434555325,
20.0,0.0,resp1,stim/left_resp_img.png,"[0.5, 0]",left,stim/silver_coin.png,gold,,,,,training,,,silver,val,,,,,0.0,0.0,0.0,0.0,2.0,0.0,4.0,0.0,,,,,,,,,0.0,training_resp,,333.9245221603196,30.746607637847774,4.0,,left,silver,0.0,244.0,1.0,right,2023_Oct_09_1007,habits_v_MRI,5.0,40.0,1.0,5.0,30.0,15.0,5.0,15.0,30.0,30.0,60.0,RR,60.09620434555325,
20.0,0.0,resp1,stim/left_resp_img.png,"[0.5, 0]",left,stim/silver_coin.png,gold,,,,,training,,,silver,val,,,,,0.0,0.0,0.0,0.0,2.0,0.0,4.0,0.0,,,,,,,,,0.0,training_resp,,334.94120765838306,31.76325325423386,4.0,,left,silver,0.0,244.0,1.0,right,2023_Oct_09_1007,habits_v_MRI,5.0,40.0,1.0,5.0,30.0,15.0,5.0,15.0,30.0,30.0,60.0,RR,60.09620434555325,
20.0,0.0,resp1,stim/left_resp_img.png,"[0.5, 0]",left,stim/silver_coin.png,gold,,,,,training,,,silver,val,,,,,0.0,0.0,0.0,0.0,2.0,0.0,4.0,0.0,,,,,,,,,0.0,training_resp,,335.52442005148623,32.34656124608591,4.0,,left,silver,0.0,244.0,1.0,right,2023_Oct_09_1007,habits_v_MRI,5.0,40.0,1.0,5.0,30.0,15.0,5.0,15.0,30.0,30.0,60.0,RR,60.09620434555325,
20.0,0.0,resp1,stim/left_resp_img.png,"[0.5, 0]",left,stim/silver_coin.png,gold,,,,,training,,,silver,val,,,,,0.0,0.0,0.0,0.0,2.0,0.0,4.0,0.0,,,,,,,,,0.0,training_resp,,336.2910937463166,33.113132890779525,4.0,,left,silver,0.0,244.0,1.0,right,2023_Oct_09_1007,habits_v_MRI,5.0,40.0,1.0,5.0,30.0,15.0,5.0,15.0,30.0,30.0,60.0,RR,60.09620434555325,
20.0,0.0,resp1,stim/left_resp_img.png,"[0.5, 0]",left,stim/silver_coin.png,gold,,,,,training,,,silver,val,,,,,0.0,0.0,0.0,0.0,2.0,0.0,4.0,0.0,,,,,,,,,0.0,training_resp,,336.8244220748311,33.6464928900823,4.0,,left,silver,0.0,244.0,1.0,right,2023_Oct_09_1007,habits_v_MRI,5.0,40.0,1.0,5.0,30.0,15.0,5.0,15.0,30.0,30.0,60.0,RR,60.09620434555325,
20.0,0.0,resp1,stim/left_resp_img.png,"[0.5, 0]",left,stim/silver_coin.png,gold,,,,,training,,,silver,val,,,,,0.0,0.0,0.0,0.0,2.0,0.0,4.0,0.0,,,,,,,,,0.0,training_resp,,337.4743969875853,34.29648041236214,4.0,,left,silver,0.0,244.0,1.0,right,2023_Oct_09_1007,habits_v_MRI,5.0,40.0,1.0,5.0,30.0,15.0,5.0,15.0,30.0,30.0,60.0,RR,60.09620434555325,
