list,trial_num_python,condition,stimulus,position,corrResp,coin_img,devalued_coin,stimulus_choice1,stimulus_choice2,position1,position2,phase,corrResp1,corrResp2,outcome,cond_val,outcome_choice1,outcome_choice2,cond_val1,cond_val2,blockLoop.thisRepN,blockLoop.thisTrialN,blockLoop.thisN,blockLoop.thisIndex,trialLoop.thisRepN,trialLoop.thisTrialN,trialLoop.thisN,trialLoop.thisIndex,choice_trialLoop.thisRepN,choice_trialLoop.thisTrialN,choice_trialLoop.thisN,choice_trialLoop.thisIndex,contingency_trialLoop.thisRepN,contingency_trialLoop.thisTrialN,contingency_trialLoop.thisN,contingency_trialLoop.thisIndex,run,event,duration,globalClock_t,routineClock_t,trial,nResp_untilRnf,resp,selected_coin,wasRnf,participant,task_ordering,hand,date,expName,n_repeat_training,credits_per_rnf,cost_response,min_resp_bet_rnf,max_resp_bet_rnf,mean_resp_bet_rnf,sigma_resp_bet_rnf,min_ITI,max_ITI,min_trial_duration,max_trial_duration,schedule,frameRate,Unnamed: 65
24.0,0.0,resp1,stim/right_resp_img.png,"[-0.5, 0]",right,stim/gold_coin.png,gold,,,,,training,,,gold,deval,,,,,0.0,0.0,0.0,0.0,0.0,0.0,0.0,0.0,,,,,,,,,0.0,instr_before_block,6.0,0.0058880850410787,,,,,,,184.0,2.0,right,2023_May_09_1636,habits_v_MRI,5.0,40.0,1.0,5.0,30.0,15.0,5.0,15.0,30.0,30.0,60.0,RR,59.96783644582565,
24.0,0.0,resp1,stim/right_resp_img.png,"[-0.5, 0]",right,stim/gold_coin.png,gold,,,,,training,,,gold,deval,,,,,0.0,0.0,0.0,0.0,0.0,0.0,0.0,0.0,,,,,,,,,0.0,training_period_start,30.0,6.049288775990135,0.0,0.0,14.0,,,,184.0,2.0,right,2023_May_09_1636,habits_v_MRI,5.0,40.0,1.0,5.0,30.0,15.0,5.0,15.0,30.0,30.0,60.0,RR,59.96783644582565,
24.0,0.0,resp1,stim/right_resp_img.png,"[-0.5, 0]",right,stim/gold_coin.png,gold,,,,,training,,,gold,deval,,,,,0.0,0.0,0.0,0.0,0.0,0.0,0.0,0.0,,,,,,,,,0.0,training_resp,,7.178302909553167,1.1487962107930798,0.0,,right,gold,0.0,184.0,2.0,right,2023_May_09_1636,habits_v_MRI,5.0,40.0,1.0,5.0,30.0,15.0,5.0,15.0,30.0,30.0,60.0,RR,59.96783644582565,
24.0,0.0,resp1,stim/right_resp_img.png,"[-0.5, 0]",right,stim/gold_coin.png,gold,,,,,training,,,gold,deval,,,,,0.0,0.0,0.0,0.0,0.0,0.0,0.0,0.0,,,,,,,,,0.0,training_resp,,9.611119240536937,3.581945962389,0.0,,right,gold,0.0,184.0,2.0,right,2023_May_09_1636,habits_v_MRI,5.0,40.0,1.0,5.0,30.0,15.0,5.0,15.0,30.0,30.0,60.0,RR,59.96783644582565,
24.0,0.0,resp1,stim/right_resp_img.png,"[-0.5, 0]",right,stim/gold_coin.png,gold,,,,,training,,,gold,deval,,,,,0.0,0.0,0.0,0.0,0.0,0.0,0.0,0.0,,,,,,,,,0.0,training_resp,,11.027757780029788,4.998573358549038,0.0,,right,gold,0.0,184.0,2.0,right,2023_May_09_1636,habits_v_MRI,5.0,40.0,1.0,5.0,30.0,15.0,5.0,15.0,30.0,30.0,60.0,RR,59.96783644582565,
24.0,0.0,resp1,stim/right_resp_img.png,"[-0.5, 0]",right,stim/gold_coin.png,gold,,,,,training,,,gold,deval,,,,,0.0,0.0,0.0,0.0,0.0,0.0,0.0,0.0,,,,,,,,,0.0,training_resp,,12.544118410354711,6.515056272415677,0.0,,right,gold,0.0,184.0,2.0,right,2023_May_09_1636,habits_v_MRI,5.0,40.0,1.0,5.0,30.0,15.0,5.0,15.0,30.0,30.0,60.0,RR,59.96783644582565,
24.0,0.0,resp1,stim/right_resp_img.png,"[-0.5, 0]",right,stim/gold_coin.png,gold,,,,,training,,,gold,deval,,,,,0.0,0.0,0.0,0.0,0.0,0.0,0.0,0.0,,,,,,,,,0.0,training_resp,,13.777379419479985,7.748335462776595,0.0,,right,gold,0.0,184.0,2.0,right,2023_May_09_1636,habits_v_MRI,5.0,40.0,1.0,5.0,30.0,15.0,5.0,15.0,30.0,30.0,60.0,RR,59.96783644582565,
24.0,0.0,resp1,stim/right_resp_img.png,"[-0.5, 0]",right,stim/gold_coin.png,gold,,,,,training,,,gold,deval,,,,,0.0,0.0,0.0,0.0,0.0,0.0,0.0,0.0,,,,,,,,,0.0,training_resp,,16.126619487302378,10.097741507808678,0.0,,right,gold,0.0,184.0,2.0,right,2023_May_09_1636,habits_v_MRI,5.0,40.0,1.0,5.0,30.0,15.0,5.0,15.0,30.0,30.0,60.0,RR,59.96783644582565,
24.0,0.0,resp1,stim/right_resp_img.png,"[-0.5, 0]",right,stim/gold_coin.png,gold,,,,,training,,,gold,deval,,,,,0.0,0.0,0.0,0.0,0.0,0.0,0.0,0.0,,,,,,,,,0.0,training_resp,,17.627352455514483,11.59810850508802,0.0,,right,gold,0.0,184.0,2.0,right,2023_May_09_1636,habits_v_MRI,5.0,40.0,1.0,5.0,30.0,15.0,5.0,15.0,30.0,30.0,60.0,RR,59.96783644582565,
24.0,0.0,resp1,stim/right_resp_img.png,"[-0.5, 0]",right,stim/gold_coin.png,gold,,,,,training,,,gold,deval,,,,,0.0,0.0,0.0,0.0,0.0,0.0,0.0,0.0,,,,,,,,,0.0,training_resp,,20.060458806721726,14.031236849739798,0.0,,right,gold,0.0,184.0,2.0,right,2023_May_09_1636,habits_v_MRI,5.0,40.0,1.0,5.0,30.0,15.0,5.0,15.0,30.0,30.0,60.0,RR,59.96783644582565,
24.0,0.0,resp1,stim/right_resp_img.png,"[-0.5, 0]",right,stim/gold_coin.png,gold,,,,,training,,,gold,deval,,,,,0.0,0.0,0.0,0.0,0.0,0.0,0.0,0.0,,,,,,,,,0.0,training_resp,,21.41041703383962,15.381207099941092,0.0,,right,gold,0.0,184.0,2.0,right,2023_May_09_1636,habits_v_MRI,5.0,40.0,1.0,5.0,30.0,15.0,5.0,15.0,30.0,30.0,60.0,RR,59.96783644582565,
24.0,0.0,resp1,stim/right_resp_img.png,"[-0.5, 0]",right,stim/gold_coin.png,gold,,,,,training,,,gold,deval,,,,,0.0,0.0,0.0,0.0,0.0,0.0,0.0,0.0,,,,,,,,,0.0,training_resp,,22.827019504082276,16.79777760639263,0.0,,right,gold,0.0,184.0,2.0,right,2023_May_09_1636,habits_v_MRI,5.0,40.0,1.0,5.0,30.0,15.0,5.0,15.0,30.0,30.0,60.0,RR,59.96783644582565,
24.0,0.0,resp1,stim/right_resp_img.png,"[-0.5, 0]",right,stim/gold_coin.png,gold,,,,,training,,,gold,deval,,,,,0.0,0.0,0.0,0.0,0.0,0.0,0.0,0.0,,,,,,,,,0.0,training_resp,,24.060272009053733,18.03103128435032,0.0,,right,gold,0.0,184.0,2.0,right,2023_May_09_1636,habits_v_MRI,5.0,40.0,1.0,5.0,30.0,15.0,5.0,15.0,30.0,30.0,60.0,RR,59.96783644582565,
24.0,0.0,resp1,stim/right_resp_img.png,"[-0.5, 0]",right,stim/gold_coin.png,gold,,,,,training,,,gold,deval,,,,,0.0,0.0,0.0,0.0,0.0,0.0,0.0,0.0,,,,,,,,,0.0,training_resp,,25.360028585608237,19.33087260897446,0.0,,right,gold,0.0,184.0,2.0,right,2023_May_09_1636,habits_v_MRI,5.0,40.0,1.0,5.0,30.0,15.0,5.0,15.0,30.0,30.0,60.0,RR,59.96783644582565,
24.0,0.0,resp1,stim/right_resp_img.png,"[-0.5, 0]",right,stim/gold_coin.png,gold,,,,,training,,,gold,deval,,,,,0.0,0.0,0.0,0.0,0.0,0.0,0.0,0.0,,,,,,,,,0.0,training_resp,,26.693373844274905,20.664169482071884,0.0,,right,gold,0.0,184.0,2.0,right,2023_May_09_1636,habits_v_MRI,5.0,40.0,1.0,5.0,30.0,15.0,5.0,15.0,30.0,30.0,60.0,RR,59.96783644582565,
24.0,0.0,resp1,stim/right_resp_img.png,"[-0.5, 0]",right,stim/gold_coin.png,gold,,,,,training,,,gold,deval,,,,,0.0,0.0,0.0,0.0,0.0,0.0,0.0,0.0,,,,,,,,,0.0,training_resp,,28.226652125580586,22.19740729541809,0.0,17.0,right,gold,1.0,184.0,2.0,right,2023_May_09_1636,habits_v_MRI,5.0,40.0,1.0,5.0,30.0,15.0,5.0,15.0,30.0,30.0,60.0,RR,59.96783644582565,
24.0,0.0,resp1,stim/right_resp_img.png,"[-0.5, 0]",right,stim/gold_coin.png,gold,,,,,training,,,gold,deval,,,,,0.0,0.0,0.0,0.0,0.0,0.0,0.0,0.0,,,,,,,,,0.0,training_resp,,29.476479477030807,23.447339628924965,0.0,,right,gold,0.0,184.0,2.0,right,2023_May_09_1636,habits_v_MRI,5.0,40.0,1.0,5.0,30.0,15.0,5.0,15.0,30.0,30.0,60.0,RR,59.96783644582565,
24.0,0.0,resp1,stim/right_resp_img.png,"[-0.5, 0]",right,stim/gold_coin.png,gold,,,,,training,,,gold,deval,,,,,0.0,0.0,0.0,0.0,0.0,0.0,0.0,0.0,,,,,,,,,0.0,training_resp,,30.32655544239969,24.29730269459833,0.0,,right,gold,0.0,184.0,2.0,right,2023_May_09_1636,habits_v_MRI,5.0,40.0,1.0,5.0,30.0,15.0,5.0,15.0,30.0,30.0,60.0,RR,59.96783644582565,
24.0,0.0,resp1,stim/right_resp_img.png,"[-0.5, 0]",right,stim/gold_coin.png,gold,,,,,training,,,gold,deval,,,,,0.0,0.0,0.0,0.0,0.0,0.0,0.0,0.0,,,,,,,,,0.0,training_resp,,31.0930284592323,25.063858113542665,0.0,,right,gold,0.0,184.0,2.0,right,2023_May_09_1636,habits_v_MRI,5.0,40.0,1.0,5.0,30.0,15.0,5.0,15.0,30.0,30.0,60.0,RR,59.96783644582565,
24.0,0.0,resp1,stim/right_resp_img.png,"[-0.5, 0]",right,stim/gold_coin.png,gold,,,,,training,,,gold,deval,,,,,0.0,0.0,0.0,0.0,0.0,0.0,0.0,0.0,,,,,,,,,0.0,training_resp,,31.90988523233682,25.880551841910343,0.0,,right,gold,0.0,184.0,2.0,right,2023_May_09_1636,habits_v_MRI,5.0,40.0,1.0,5.0,30.0,15.0,5.0,15.0,30.0,30.0,60.0,RR,59.96783644582565,
24.0,0.0,resp1,stim/right_resp_img.png,"[-0.5, 0]",right,stim/gold_coin.png,gold,,,,,training,,,gold,deval,,,,,0.0,0.0,0.0,0.0,0.0,0.0,0.0,0.0,,,,,,,,,0.0,training_resp,,32.65978047023236,26.630545903681195,0.0,,right,gold,0.0,184.0,2.0,right,2023_May_09_1636,habits_v_MRI,5.0,40.0,1.0,5.0,30.0,15.0,5.0,15.0,30.0,30.0,60.0,RR,59.96783644582565,
24.0,0.0,resp1,stim/right_resp_img.png,"[-0.5, 0]",right,stim/gold_coin.png,gold,,,,,training,,,gold,deval,,,,,0.0,0.0,0.0,0.0,0.0,0.0,0.0,0.0,,,,,,,,,0.0,training_resp,,33.426231493620435,27.397074050750238,0.0,,right,gold,0.0,184.0,2.0,right,2023_May_09_1636,habits_v_MRI,5.0,40.0,1.0,5.0,30.0,15.0,5.0,15.0,30.0,30.0,60.0,RR,59.96783644582565,
24.0,0.0,resp1,stim/right_resp_img.png,"[-0.5, 0]",right,stim/gold_coin.png,gold,,,,,training,,,gold,deval,,,,,0.0,0.0,0.0,0.0,0.0,0.0,0.0,0.0,,,,,,,,,0.0,training_resp,,34.69283925695345,28.663637533943984,0.0,,right,gold,0.0,184.0,2.0,right,2023_May_09_1636,habits_v_MRI,5.0,40.0,1.0,5.0,30.0,15.0,5.0,15.0,30.0,30.0,60.0,RR,59.96783644582565,
24.0,0.0,resp1,stim/right_resp_img.png,"[-0.5, 0]",right,stim/gold_coin.png,gold,,,,,training,,,gold,deval,,,,,0.0,0.0,0.0,0.0,0.0,0.0,0.0,0.0,,,,,,,,,0.0,training_resp,,35.40944697629311,29.380269299465,0.0,,right,gold,0.0,184.0,2.0,right,2023_May_09_1636,habits_v_MRI,5.0,40.0,1.0,5.0,30.0,15.0,5.0,15.0,30.0,30.0,60.0,RR,59.96783644582565,
24.0,0.0,resp1,stim/right_resp_img.png,"[-0.5, 0]",right,stim/gold_coin.png,gold,,,,,training,,,gold,deval,,,,,0.0,0.0,0.0,0.0,0.0,0.0,0.0,0.0,,,,,,,,,0.0,ITI_start,16.666666666666668,35.7101958970743,29.68023818606161,,,,,,184.0,2.0,right,2023_May_09_1636,habits_v_MRI,5.0,40.0,1.0,5.0,30.0,15.0,5.0,15.0,30.0,30.0,60.0,RR,59.96783644582565,
24.0,1.0,resp2,stim/left_resp_img.png,"[0.5, 0]",left,stim/silver_coin.png,gold,,,,,training,,,silver,val,,,,,0.0,0.0,0.0,0.0,0.0,1.0,1.0,1.0,,,,,,,,,0.0,training_period_start,60.0,52.412843057420105,0.0,1.0,11.0,,,,184.0,2.0,right,2023_May_09_1636,habits_v_MRI,5.0,40.0,1.0,5.0,30.0,15.0,5.0,15.0,30.0,30.0,60.0,RR,59.96783644582565,
24.0,1.0,resp2,stim/left_resp_img.png,"[0.5, 0]",left,stim/silver_coin.png,gold,,,,,training,,,silver,val,,,,,0.0,0.0,0.0,0.0,0.0,1.0,1.0,1.0,,,,,,,,,0.0,training_resp,,53.12468670337694,0.731228961434681,1.0,,left,silver,0.0,184.0,2.0,right,2023_May_09_1636,habits_v_MRI,5.0,40.0,1.0,5.0,30.0,15.0,5.0,15.0,30.0,30.0,60.0,RR,59.96783644582565,
24.0,1.0,resp2,stim/left_resp_img.png,"[0.5, 0]",left,stim/silver_coin.png,gold,,,,,training,,,silver,val,,,,,0.0,0.0,0.0,0.0,0.0,1.0,1.0,1.0,,,,,,,,,0.0,training_resp,,54.49125291376549,2.097887251045904,1.0,,left,silver,0.0,184.0,2.0,right,2023_May_09_1636,habits_v_MRI,5.0,40.0,1.0,5.0,30.0,15.0,5.0,15.0,30.0,30.0,60.0,RR,59.96783644582565,
24.0,1.0,resp2,stim/left_resp_img.png,"[0.5, 0]",left,stim/silver_coin.png,gold,,,,,training,,,silver,val,,,,,0.0,0.0,0.0,0.0,0.0,1.0,1.0,1.0,,,,,,,,,0.0,training_resp,,55.25784498844587,2.8644391510315472,1.0,,left,silver,0.0,184.0,2.0,right,2023_May_09_1636,habits_v_MRI,5.0,40.0,1.0,5.0,30.0,15.0,5.0,15.0,30.0,30.0,60.0,RR,59.96783644582565,
24.0,1.0,resp2,stim/left_resp_img.png,"[0.5, 0]",left,stim/silver_coin.png,gold,,,,,training,,,silver,val,,,,,0.0,0.0,0.0,0.0,0.0,1.0,1.0,1.0,,,,,,,,,0.0,training_resp,,56.09103995857004,3.6976511294196825,1.0,,left,silver,0.0,184.0,2.0,right,2023_May_09_1636,habits_v_MRI,5.0,40.0,1.0,5.0,30.0,15.0,5.0,15.0,30.0,30.0,60.0,RR,59.96783644582565,
24.0,1.0,resp2,stim/left_resp_img.png,"[0.5, 0]",left,stim/silver_coin.png,gold,,,,,training,,,silver,val,,,,,0.0,0.0,0.0,0.0,0.0,1.0,1.0,1.0,,,,,,,,,0.0,training_resp,,56.841082112674485,4.447732578482828,1.0,,left,silver,0.0,184.0,2.0,right,2023_May_09_1636,habits_v_MRI,5.0,40.0,1.0,5.0,30.0,15.0,5.0,15.0,30.0,30.0,60.0,RR,59.96783644582565,
24.0,1.0,resp2,stim/left_resp_img.png,"[0.5, 0]",left,stim/silver_coin.png,gold,,,,,training,,,silver,val,,,,,0.0,0.0,0.0,0.0,0.0,1.0,1.0,1.0,,,,,,,,,0.0,training_resp,,57.60772081345203,5.214359549427172,1.0,,left,silver,0.0,184.0,2.0,right,2023_May_09_1636,habits_v_MRI,5.0,40.0,1.0,5.0,30.0,15.0,5.0,15.0,30.0,30.0,60.0,RR,59.96783644582565,
24.0,1.0,resp2,stim/left_resp_img.png,"[0.5, 0]",left,stim/silver_coin.png,gold,,,,,training,,,silver,val,,,,,0.0,0.0,0.0,0.0,0.0,1.0,1.0,1.0,,,,,,,,,0.0,training_resp,,58.42429489748611,6.030904015628039,1.0,,left,silver,0.0,184.0,2.0,right,2023_May_09_1636,habits_v_MRI,5.0,40.0,1.0,5.0,30.0,15.0,5.0,15.0,30.0,30.0,60.0,RR,59.96783644582565,
24.0,1.0,resp2,stim/left_resp_img.png,"[0.5, 0]",left,stim/silver_coin.png,gold,,,,,training,,,silver,val,,,,,0.0,0.0,0.0,0.0,0.0,1.0,1.0,1.0,,,,,,,,,0.0,training_resp,,59.17416550272901,6.780817141523585,1.0,,left,silver,0.0,184.0,2.0,right,2023_May_09_1636,habits_v_MRI,5.0,40.0,1.0,5.0,30.0,15.0,5.0,15.0,30.0,30.0,60.0,RR,59.96783644582565,
24.0,1.0,resp2,stim/left_resp_img.png,"[0.5, 0]",left,stim/silver_coin.png,gold,,,,,training,,,silver,val,,,,,0.0,0.0,0.0,0.0,0.0,1.0,1.0,1.0,,,,,,,,,0.0,training_resp,,59.97423042736773,7.580838079273235,1.0,,left,silver,0.0,184.0,2.0,right,2023_May_09_1636,habits_v_MRI,5.0,40.0,1.0,5.0,30.0,15.0,5.0,15.0,30.0,30.0,60.0,RR,59.96783644582565,
24.0,1.0,resp2,stim/left_resp_img.png,"[0.5, 0]",left,stim/silver_coin.png,gold,,,,,training,,,silver,val,,,,,0.0,0.0,0.0,0.0,0.0,1.0,1.0,1.0,,,,,,,,,0.0,training_resp,,60.74115093749424,8.347575897176284,1.0,,left,silver,0.0,184.0,2.0,right,2023_May_09_1636,habits_v_MRI,5.0,40.0,1.0,5.0,30.0,15.0,5.0,15.0,30.0,30.0,60.0,RR,59.96783644582565,
24.0,1.0,resp2,stim/left_resp_img.png,"[0.5, 0]",left,stim/silver_coin.png,gold,,,,,training,,,silver,val,,,,,0.0,0.0,0.0,0.0,0.0,1.0,1.0,1.0,,,,,,,,,0.0,training_resp,,61.47441971761873,9.080917988787403,1.0,11.0,left,silver,1.0,184.0,2.0,right,2023_May_09_1636,habits_v_MRI,5.0,40.0,1.0,5.0,30.0,15.0,5.0,15.0,30.0,30.0,60.0,RR,59.96783644582565,
24.0,1.0,resp2,stim/left_resp_img.png,"[0.5, 0]",left,stim/silver_coin.png,gold,,,,,training,,,silver,val,,,,,0.0,0.0,0.0,0.0,0.0,1.0,1.0,1.0,,,,,,,,,0.0,training_resp,,62.507737440493656,10.114135714800796,1.0,,left,silver,0.0,184.0,2.0,right,2023_May_09_1636,habits_v_MRI,5.0,40.0,1.0,5.0,30.0,15.0,5.0,15.0,30.0,30.0,60.0,RR,59.96783644582565,
24.0,1.0,resp2,stim/left_resp_img.png,"[0.5, 0]",left,stim/silver_coin.png,gold,,,,,training,,,silver,val,,,,,0.0,0.0,0.0,0.0,0.0,1.0,1.0,1.0,,,,,,,,,0.0,training_resp,,63.1075995562569,10.714077593467664,1.0,,left,silver,0.0,184.0,2.0,right,2023_May_09_1636,habits_v_MRI,5.0,40.0,1.0,5.0,30.0,15.0,5.0,15.0,30.0,30.0,60.0,RR,59.96783644582565,
24.0,1.0,resp2,stim/left_resp_img.png,"[0.5, 0]",left,stim/silver_coin.png,gold,,,,,training,,,silver,val,,,,,0.0,0.0,0.0,0.0,0.0,1.0,1.0,1.0,,,,,,,,,0.0,training_resp,,63.67436857553548,11.280782098634518,1.0,,left,silver,0.0,184.0,2.0,right,2023_May_09_1636,habits_v_MRI,5.0,40.0,1.0,5.0,30.0,15.0,5.0,15.0,30.0,30.0,60.0,RR,59.96783644582565,
24.0,1.0,resp2,stim/left_resp_img.png,"[0.5, 0]",left,stim/silver_coin.png,gold,,,,,training,,,silver,val,,,,,0.0,0.0,0.0,0.0,0.0,1.0,1.0,1.0,,,,,,,,,0.0,training_resp,,64.2743251164793,11.88073863957834,1.0,,left,silver,0.0,184.0,2.0,right,2023_May_09_1636,habits_v_MRI,5.0,40.0,1.0,5.0,30.0,15.0,5.0,15.0,30.0,30.0,60.0,RR,59.96783644582565,
24.0,1.0,resp2,stim/left_resp_img.png,"[0.5, 0]",left,stim/silver_coin.png,gold,,,,,training,,,silver,val,,,,,0.0,0.0,0.0,0.0,0.0,1.0,1.0,1.0,,,,,,,,,0.0,training_resp,,64.87426083697937,12.480681691216889,1.0,,left,silver,0.0,184.0,2.0,right,2023_May_09_1636,habits_v_MRI,5.0,40.0,1.0,5.0,30.0,15.0,5.0,15.0,30.0,30.0,60.0,RR,59.96783644582565,
24.0,1.0,resp2,stim/left_resp_img.png,"[0.5, 0]",left,stim/silver_coin.png,gold,,,,,training,,,silver,val,,,,,0.0,0.0,0.0,0.0,0.0,1.0,1.0,1.0,,,,,,,,,0.0,training_resp,,65.45752054113836,13.063981863335355,1.0,,left,silver,0.0,184.0,2.0,right,2023_May_09_1636,habits_v_MRI,5.0,40.0,1.0,5.0,30.0,15.0,5.0,15.0,30.0,30.0,60.0,RR,59.96783644582565,
24.0,1.0,resp2,stim/left_resp_img.png,"[0.5, 0]",left,stim/silver_coin.png,gold,,,,,training,,,silver,val,,,,,0.0,0.0,0.0,0.0,0.0,1.0,1.0,1.0,,,,,,,,,0.0,training_resp,,66.04085912846494,13.64725945549435,1.0,,left,silver,0.0,184.0,2.0,right,2023_May_09_1636,habits_v_MRI,5.0,40.0,1.0,5.0,30.0,15.0,5.0,15.0,30.0,30.0,60.0,RR,59.96783644582565,
24.0,1.0,resp2,stim/left_resp_img.png,"[0.5, 0]",left,stim/silver_coin.png,gold,,,,,training,,,silver,val,,,,,0.0,0.0,0.0,0.0,0.0,1.0,1.0,1.0,,,,,,,,,0.0,training_resp,,66.64071508606139,14.24719517599442,1.0,,left,silver,0.0,184.0,2.0,right,2023_May_09_1636,habits_v_MRI,5.0,40.0,1.0,5.0,30.0,15.0,5.0,15.0,30.0,30.0,60.0,RR,59.96783644582565,
24.0,1.0,resp2,stim/left_resp_img.png,"[0.5, 0]",left,stim/silver_coin.png,gold,,,,,training,,,silver,val,,,,,0.0,0.0,0.0,0.0,0.0,1.0,1.0,1.0,,,,,,,,,0.0,training_resp,,67.74074625810317,15.34717063131393,1.0,,left,silver,0.0,184.0,2.0,right,2023_May_09_1636,habits_v_MRI,5.0,40.0,1.0,5.0,30.0,15.0,5.0,15.0,30.0,30.0,60.0,RR,59.96783644582565,
24.0,1.0,resp2,stim/left_resp_img.png,"[0.5, 0]",left,stim/silver_coin.png,gold,,,,,training,,,silver,val,,,,,0.0,0.0,0.0,0.0,0.0,1.0,1.0,1.0,,,,,,,,,0.0,training_resp,,68.44069350317295,16.04711582364689,1.0,,left,silver,0.0,184.0,2.0,right,2023_May_09_1636,habits_v_MRI,5.0,40.0,1.0,5.0,30.0,15.0,5.0,15.0,30.0,30.0,60.0,RR,59.96783644582565,
24.0,1.0,resp2,stim/left_resp_img.png,"[0.5, 0]",left,stim/silver_coin.png,gold,,,,,training,,,silver,val,,,,,0.0,0.0,0.0,0.0,0.0,1.0,1.0,1.0,,,,,,,,,0.0,training_resp,,69.14068092292291,16.747098551451927,1.0,17.0,left,silver,1.0,184.0,2.0,right,2023_May_09_1636,habits_v_MRI,5.0,40.0,1.0,5.0,30.0,15.0,5.0,15.0,30.0,30.0,60.0,RR,59.96783644582565,
24.0,1.0,resp2,stim/left_resp_img.png,"[0.5, 0]",left,stim/silver_coin.png,gold,,,,,training,,,silver,val,,,,,0.0,0.0,0.0,0.0,0.0,1.0,1.0,1.0,,,,,,,,,0.0,training_resp,,69.80728786515829,17.41369083141035,1.0,,left,silver,0.0,184.0,2.0,right,2023_May_09_1636,habits_v_MRI,5.0,40.0,1.0,5.0,30.0,15.0,5.0,15.0,30.0,30.0,60.0,RR,59.96783644582565,
24.0,1.0,resp2,stim/left_resp_img.png,"[0.5, 0]",left,stim/silver_coin.png,gold,,,,,training,,,silver,val,,,,,0.0,0.0,0.0,0.0,0.0,1.0,1.0,1.0,,,,,,,,,0.0,training_resp,,70.37380146722717,17.980278038201504,1.0,,left,silver,0.0,184.0,2.0,right,2023_May_09_1636,habits_v_MRI,5.0,40.0,1.0,5.0,30.0,15.0,5.0,15.0,30.0,30.0,60.0,RR,59.96783644582565,
24.0,1.0,resp2,stim/left_resp_img.png,"[0.5, 0]",left,stim/silver_coin.png,gold,,,,,training,,,silver,val,,,,,0.0,0.0,0.0,0.0,0.0,1.0,1.0,1.0,,,,,,,,,0.0,training_resp,,70.89051721837313,18.496928395499708,1.0,,left,silver,0.0,184.0,2.0,right,2023_May_09_1636,habits_v_MRI,5.0,40.0,1.0,5.0,30.0,15.0,5.0,15.0,30.0,30.0,60.0,RR,59.96783644582565,
24.0,1.0,resp2,stim/left_resp_img.png,"[0.5, 0]",left,stim/silver_coin.png,gold,,,,,training,,,silver,val,,,,,0.0,0.0,0.0,0.0,0.0,1.0,1.0,1.0,,,,,,,,,0.0,training_resp,,71.42370576641406,19.030208729527654,1.0,,left,silver,0.0,184.0,2.0,right,2023_May_09_1636,habits_v_MRI,5.0,40.0,1.0,5.0,30.0,15.0,5.0,15.0,30.0,30.0,60.0,RR,59.96783644582565,
24.0,1.0,resp2,stim/left_resp_img.png,"[0.5, 0]",left,stim/silver_coin.png,gold,,,,,training,,,silver,val,,,,,0.0,0.0,0.0,0.0,0.0,1.0,1.0,1.0,,,,,,,,,0.0,training_resp,,72.0070434740046,19.61352239093685,1.0,,left,silver,0.0,184.0,2.0,right,2023_May_09_1636,habits_v_MRI,5.0,40.0,1.0,5.0,30.0,15.0,5.0,15.0,30.0,30.0,60.0,RR,59.96783644582565,
24.0,1.0,resp2,stim/left_resp_img.png,"[0.5, 0]",left,stim/silver_coin.png,gold,,,,,training,,,silver,val,,,,,0.0,0.0,0.0,0.0,0.0,1.0,1.0,1.0,,,,,,,,,0.0,training_resp,,72.57366880276822,20.180139802076155,1.0,,left,silver,0.0,184.0,2.0,right,2023_May_09_1636,habits_v_MRI,5.0,40.0,1.0,5.0,30.0,15.0,5.0,15.0,30.0,30.0,60.0,RR,59.96783644582565,
24.0,1.0,resp2,stim/left_resp_img.png,"[0.5, 0]",left,stim/silver_coin.png,gold,,,,,training,,,silver,val,,,,,0.0,0.0,0.0,0.0,0.0,1.0,1.0,1.0,,,,,,,,,0.0,training_resp,,73.15695167335798,20.763428537582516,1.0,,left,silver,0.0,184.0,2.0,right,2023_May_09_1636,habits_v_MRI,5.0,40.0,1.0,5.0,30.0,15.0,5.0,15.0,30.0,30.0,60.0,RR,59.96783644582565,
24.0,1.0,resp2,stim/left_resp_img.png,"[0.5, 0]",left,stim/silver_coin.png,gold,,,,,training,,,silver,val,,,,,0.0,0.0,0.0,0.0,0.0,1.0,1.0,1.0,,,,,,,,,0.0,training_resp,,74.27360402474005,21.88004100752005,1.0,,left,silver,0.0,184.0,2.0,right,2023_May_09_1636,habits_v_MRI,5.0,40.0,1.0,5.0,30.0,15.0,5.0,15.0,30.0,30.0,60.0,RR,59.96783644582565,
24.0,1.0,resp2,stim/left_resp_img.png,"[0.5, 0]",left,stim/silver_coin.png,gold,,,,,training,,,silver,val,,,,,0.0,0.0,0.0,0.0,0.0,1.0,1.0,1.0,,,,,,,,,0.0,training_resp,,74.90727710303327,22.513288292713696,1.0,,left,silver,0.0,184.0,2.0,right,2023_May_09_1636,habits_v_MRI,5.0,40.0,1.0,5.0,30.0,15.0,5.0,15.0,30.0,30.0,60.0,RR,59.96783644582565,
24.0,1.0,resp2,stim/left_resp_img.png,"[0.5, 0]",left,stim/silver_coin.png,gold,,,,,training,,,silver,val,,,,,0.0,0.0,0.0,0.0,0.0,1.0,1.0,1.0,,,,,,,,,0.0,training_resp,,75.49029194685863,23.09662453406781,1.0,,left,silver,0.0,184.0,2.0,right,2023_May_09_1636,habits_v_MRI,5.0,40.0,1.0,5.0,30.0,15.0,5.0,15.0,30.0,30.0,60.0,RR,59.96783644582565,
24.0,1.0,resp2,stim/left_resp_img.png,"[0.5, 0]",left,stim/silver_coin.png,gold,,,,,training,,,silver,val,,,,,0.0,0.0,0.0,0.0,0.0,1.0,1.0,1.0,,,,,,,,,0.0,training_resp,,76.09027898538625,23.696608346901485,1.0,,left,silver,0.0,184.0,2.0,right,2023_May_09_1636,habits_v_MRI,5.0,40.0,1.0,5.0,30.0,15.0,5.0,15.0,30.0,30.0,60.0,RR,59.96783644582565,
24.0,1.0,resp2,stim/left_resp_img.png,"[0.5, 0]",left,stim/silver_coin.png,gold,,,,,training,,,silver,val,,,,,0.0,0.0,0.0,0.0,0.0,1.0,1.0,1.0,,,,,,,,,0.0,training_resp,,76.65671868946811,24.26317268051207,1.0,,left,silver,0.0,184.0,2.0,right,2023_May_09_1636,habits_v_MRI,5.0,40.0,1.0,5.0,30.0,15.0,5.0,15.0,30.0,30.0,60.0,RR,59.96783644582565,
24.0,1.0,resp2,stim/left_resp_img.png,"[0.5, 0]",left,stim/silver_coin.png,gold,,,,,training,,,silver,val,,,,,0.0,0.0,0.0,0.0,0.0,1.0,1.0,1.0,,,,,,,,,0.0,training_resp,,77.20667885201692,24.813142813407467,1.0,,left,silver,0.0,184.0,2.0,right,2023_May_09_1636,habits_v_MRI,5.0,40.0,1.0,5.0,30.0,15.0,5.0,15.0,30.0,30.0,60.0,RR,59.96783644582565,
24.0,1.0,resp2,stim/left_resp_img.png,"[0.5, 0]",left,stim/silver_coin.png,gold,,,,,training,,,silver,val,,,,,0.0,0.0,0.0,0.0,0.0,1.0,1.0,1.0,,,,,,,,,0.0,training_resp,,77.77338335718377,25.379827964352444,1.0,,left,silver,0.0,184.0,2.0,right,2023_May_09_1636,habits_v_MRI,5.0,40.0,1.0,5.0,30.0,15.0,5.0,15.0,30.0,30.0,60.0,RR,59.96783644582565,
24.0,1.0,resp2,stim/left_resp_img.png,"[0.5, 0]",left,stim/silver_coin.png,gold,,,,,training,,,silver,val,,,,,0.0,0.0,0.0,0.0,0.0,1.0,1.0,1.0,,,,,,,,,0.0,training_resp,,78.17338048336387,25.779825970268572,1.0,,right,,,184.0,2.0,right,2023_May_09_1636,habits_v_MRI,5.0,40.0,1.0,5.0,30.0,15.0,5.0,15.0,30.0,30.0,60.0,RR,59.96783644582565,
24.0,1.0,resp2,stim/left_resp_img.png,"[0.5, 0]",left,stim/silver_coin.png,gold,,,,,training,,,silver,val,,,,,0.0,0.0,0.0,0.0,0.0,1.0,1.0,1.0,,,,,,,,,0.0,training_resp,,78.3234957143577,25.929816571748237,1.0,,left,silver,0.0,184.0,2.0,right,2023_May_09_1636,habits_v_MRI,5.0,40.0,1.0,5.0,30.0,15.0,5.0,15.0,30.0,30.0,60.0,RR,59.96783644582565,
24.0,1.0,resp2,stim/left_resp_img.png,"[0.5, 0]",left,stim/silver_coin.png,gold,,,,,training,,,silver,val,,,,,0.0,0.0,0.0,0.0,0.0,1.0,1.0,1.0,,,,,,,,,0.0,training_resp,,79.37335925236403,26.97975635368493,1.0,,left,silver,0.0,184.0,2.0,right,2023_May_09_1636,habits_v_MRI,5.0,40.0,1.0,5.0,30.0,15.0,5.0,15.0,30.0,30.0,60.0,RR,59.96783644582565,
24.0,1.0,resp2,stim/left_resp_img.png,"[0.5, 0]",left,stim/silver_coin.png,gold,,,,,training,,,silver,val,,,,,0.0,0.0,0.0,0.0,0.0,1.0,1.0,1.0,,,,,,,,,0.0,training_resp,,80.03987880732166,27.64632370774052,1.0,23.0,left,silver,1.0,184.0,2.0,right,2023_May_09_1636,habits_v_MRI,5.0,40.0,1.0,5.0,30.0,15.0,5.0,15.0,30.0,30.0,60.0,RR,59.96783644582565,
24.0,1.0,resp2,stim/left_resp_img.png,"[0.5, 0]",left,stim/silver_coin.png,gold,,,,,training,,,silver,val,,,,,0.0,0.0,0.0,0.0,0.0,1.0,1.0,1.0,,,,,,,,,0.0,training_resp,,80.58985568488424,28.196295013622148,1.0,,left,silver,0.0,184.0,2.0,right,2023_May_09_1636,habits_v_MRI,5.0,40.0,1.0,5.0,30.0,15.0,5.0,15.0,30.0,30.0,60.0,RR,59.96783644582565,
24.0,1.0,resp2,stim/left_resp_img.png,"[0.5, 0]",left,stim/silver_coin.png,gold,,,,,training,,,silver,val,,,,,0.0,0.0,0.0,0.0,0.0,1.0,1.0,1.0,,,,,,,,,0.0,training_resp,,81.13979385397397,28.74624872475397,1.0,,left,silver,0.0,184.0,2.0,right,2023_May_09_1636,habits_v_MRI,5.0,40.0,1.0,5.0,30.0,15.0,5.0,15.0,30.0,30.0,60.0,RR,59.96783644582565,
24.0,1.0,resp2,stim/left_resp_img.png,"[0.5, 0]",left,stim/silver_coin.png,gold,,,,,training,,,silver,val,,,,,0.0,0.0,0.0,0.0,0.0,1.0,1.0,1.0,,,,,,,,,0.0,training_resp,,82.07328450397472,29.67958659361466,1.0,,left,silver,0.0,184.0,2.0,right,2023_May_09_1636,habits_v_MRI,5.0,40.0,1.0,5.0,30.0,15.0,5.0,15.0,30.0,30.0,60.0,RR,59.96783644582565,
24.0,1.0,resp2,stim/left_resp_img.png,"[0.5, 0]",left,stim/silver_coin.png,gold,,,,,training,,,silver,val,,,,,0.0,0.0,0.0,0.0,0.0,1.0,1.0,1.0,,,,,,,,,0.0,training_resp,,82.95646734838374,30.562809319482767,1.0,,left,silver,0.0,184.0,2.0,right,2023_May_09_1636,habits_v_MRI,5.0,40.0,1.0,5.0,30.0,15.0,5.0,15.0,30.0,30.0,60.0,RR,59.96783644582565,
24.0,1.0,resp2,stim/left_resp_img.png,"[0.5, 0]",left,stim/silver_coin.png,gold,,,,,training,,,silver,val,,,,,0.0,0.0,0.0,0.0,0.0,1.0,1.0,1.0,,,,,,,,,0.0,training_resp,,83.57318289426621,31.17946533643408,1.0,,left,silver,0.0,184.0,2.0,right,2023_May_09_1636,habits_v_MRI,5.0,40.0,1.0,5.0,30.0,15.0,5.0,15.0,30.0,30.0,60.0,RR,59.96783644582565,
24.0,1.0,resp2,stim/left_resp_img.png,"[0.5, 0]",left,stim/silver_coin.png,gold,,,,,training,,,silver,val,,,,,0.0,0.0,0.0,0.0,0.0,1.0,1.0,1.0,,,,,,,,,0.0,training_resp,,84.12306769259158,31.72936362407927,1.0,,left,silver,0.0,184.0,2.0,right,2023_May_09_1636,habits_v_MRI,5.0,40.0,1.0,5.0,30.0,15.0,5.0,15.0,30.0,30.0,60.0,RR,59.96783644582565,
24.0,1.0,resp2,stim/left_resp_img.png,"[0.5, 0]",left,stim/silver_coin.png,gold,,,,,training,,,silver,val,,,,,0.0,0.0,0.0,0.0,0.0,1.0,1.0,1.0,,,,,,,,,0.0,training_resp,,84.60635076845938,32.21275696041994,1.0,,left,silver,0.0,184.0,2.0,right,2023_May_09_1636,habits_v_MRI,5.0,40.0,1.0,5.0,30.0,15.0,5.0,15.0,30.0,30.0,60.0,RR,59.96783644582565,
24.0,1.0,resp2,stim/left_resp_img.png,"[0.5, 0]",left,stim/silver_coin.png,gold,,,,,training,,,silver,val,,,,,0.0,0.0,0.0,0.0,0.0,1.0,1.0,1.0,,,,,,,,,0.0,training_resp,,85.10623977487558,32.712707255224814,1.0,,left,silver,0.0,184.0,2.0,right,2023_May_09_1636,habits_v_MRI,5.0,40.0,1.0,5.0,30.0,15.0,5.0,15.0,30.0,30.0,60.0,RR,59.96783644582565,
24.0,1.0,resp2,stim/left_resp_img.png,"[0.5, 0]",left,stim/silver_coin.png,gold,,,,,training,,,silver,val,,,,,0.0,0.0,0.0,0.0,0.0,1.0,1.0,1.0,,,,,,,,,0.0,training_resp,,85.62284790477133,33.2293048282736,1.0,,left,silver,0.0,184.0,2.0,right,2023_May_09_1636,habits_v_MRI,5.0,40.0,1.0,5.0,30.0,15.0,5.0,15.0,30.0,30.0,60.0,RR,59.96783644582565,
24.0,1.0,resp2,stim/left_resp_img.png,"[0.5, 0]",left,stim/silver_coin.png,gold,,,,,training,,,silver,val,,,,,0.0,0.0,0.0,0.0,0.0,1.0,1.0,1.0,,,,,,,,,0.0,training_resp,,86.15625814674422,33.76263442760683,1.0,,left,silver,0.0,184.0,2.0,right,2023_May_09_1636,habits_v_MRI,5.0,40.0,1.0,5.0,30.0,15.0,5.0,15.0,30.0,30.0,60.0,RR,59.96783644582565,
24.0,1.0,resp2,stim/left_resp_img.png,"[0.5, 0]",left,stim/silver_coin.png,gold,,,,,training,,,silver,val,,,,,0.0,0.0,0.0,0.0,0.0,1.0,1.0,1.0,,,,,,,,,0.0,training_resp,,86.72275327431271,34.32922339387005,1.0,,left,silver,0.0,184.0,2.0,right,2023_May_09_1636,habits_v_MRI,5.0,40.0,1.0,5.0,30.0,15.0,5.0,15.0,30.0,30.0,60.0,RR,59.96783644582565,
24.0,1.0,resp2,stim/left_resp_img.png,"[0.5, 0]",left,stim/silver_coin.png,gold,,,,,training,,,silver,val,,,,,0.0,0.0,0.0,0.0,0.0,1.0,1.0,1.0,,,,,,,,,0.0,training_resp,,87.23947371738905,34.845913632627344,1.0,,left,silver,0.0,184.0,2.0,right,2023_May_09_1636,habits_v_MRI,5.0,40.0,1.0,5.0,30.0,15.0,5.0,15.0,30.0,30.0,60.0,RR,59.96783644582565,
24.0,1.0,resp2,stim/left_resp_img.png,"[0.5, 0]",left,stim/silver_coin.png,gold,,,,,training,,,silver,val,,,,,0.0,0.0,0.0,0.0,0.0,1.0,1.0,1.0,,,,,,,,,0.0,training_resp,,87.73943808801414,35.34587477754394,1.0,,left,silver,0.0,184.0,2.0,right,2023_May_09_1636,habits_v_MRI,5.0,40.0,1.0,5.0,30.0,15.0,5.0,15.0,30.0,30.0,60.0,RR,59.96783644582565,
24.0,1.0,resp2,stim/left_resp_img.png,"[0.5, 0]",left,stim/silver_coin.png,gold,,,,,training,,,silver,val,,,,,0.0,0.0,0.0,0.0,0.0,1.0,1.0,1.0,,,,,,,,,0.0,training_resp,,88.25598375652044,35.86245915450854,1.0,,left,silver,0.0,184.0,2.0,right,2023_May_09_1636,habits_v_MRI,5.0,40.0,1.0,5.0,30.0,15.0,5.0,15.0,30.0,30.0,60.0,RR,59.96783644582565,
24.0,1.0,resp2,stim/left_resp_img.png,"[0.5, 0]",left,stim/silver_coin.png,gold,,,,,training,,,silver,val,,,,,0.0,0.0,0.0,0.0,0.0,1.0,1.0,1.0,,,,,,,,,0.0,training_resp,,88.73940201876394,36.34581172966864,1.0,,left,silver,0.0,184.0,2.0,right,2023_May_09_1636,habits_v_MRI,5.0,40.0,1.0,5.0,30.0,15.0,5.0,15.0,30.0,30.0,60.0,RR,59.96783644582565,
24.0,1.0,resp2,stim/left_resp_img.png,"[0.5, 0]",left,stim/silver_coin.png,gold,,,,,training,,,silver,val,,,,,0.0,0.0,0.0,0.0,0.0,1.0,1.0,1.0,,,,,,,,,0.0,training_resp,,89.25586117972853,36.86234097639681,1.0,,left,silver,0.0,184.0,2.0,right,2023_May_09_1636,habits_v_MRI,5.0,40.0,1.0,5.0,30.0,15.0,5.0,15.0,30.0,30.0,60.0,RR,59.96783644582565,
24.0,1.0,resp2,stim/left_resp_img.png,"[0.5, 0]",left,stim/silver_coin.png,gold,,,,,training,,,silver,val,,,,,0.0,0.0,0.0,0.0,0.0,1.0,1.0,1.0,,,,,,,,,0.0,training_resp,,89.7559771584929,37.36238393692474,1.0,,left,silver,0.0,184.0,2.0,right,2023_May_09_1636,habits_v_MRI,5.0,40.0,1.0,5.0,30.0,15.0,5.0,15.0,30.0,30.0,60.0,RR,59.96783644582565,
24.0,1.0,resp2,stim/left_resp_img.png,"[0.5, 0]",left,stim/silver_coin.png,gold,,,,,training,,,silver,val,,,,,0.0,0.0,0.0,0.0,0.0,1.0,1.0,1.0,,,,,,,,,0.0,training_resp,,90.27255097861052,37.8790190454456,1.0,,left,silver,0.0,184.0,2.0,right,2023_May_09_1636,habits_v_MRI,5.0,40.0,1.0,5.0,30.0,15.0,5.0,15.0,30.0,30.0,60.0,RR,59.96783644582565,
24.0,1.0,resp2,stim/left_resp_img.png,"[0.5, 0]",left,stim/silver_coin.png,gold,,,,,training,,,silver,val,,,,,0.0,0.0,0.0,0.0,0.0,1.0,1.0,1.0,,,,,,,,,0.0,training_resp,,90.78940279586824,38.39561691173003,1.0,,left,silver,0.0,184.0,2.0,right,2023_May_09_1636,habits_v_MRI,5.0,40.0,1.0,5.0,30.0,15.0,5.0,15.0,30.0,30.0,60.0,RR,59.96783644582565,
24.0,1.0,resp2,stim/left_resp_img.png,"[0.5, 0]",left,stim/silver_coin.png,gold,,,,,training,,,silver,val,,,,,0.0,0.0,0.0,0.0,0.0,1.0,1.0,1.0,,,,,,,,,0.0,training_resp,,91.72247645015888,39.32887619068788,1.0,,left,silver,0.0,184.0,2.0,right,2023_May_09_1636,habits_v_MRI,5.0,40.0,1.0,5.0,30.0,15.0,5.0,15.0,30.0,30.0,60.0,RR,59.96783644582565,
24.0,1.0,resp2,stim/left_resp_img.png,"[0.5, 0]",left,stim/silver_coin.png,gold,,,,,training,,,silver,val,,,,,0.0,0.0,0.0,0.0,0.0,1.0,1.0,1.0,,,,,,,,,0.0,training_resp,,92.28920118928365,39.89557541743852,1.0,,left,silver,0.0,184.0,2.0,right,2023_May_09_1636,habits_v_MRI,5.0,40.0,1.0,5.0,30.0,15.0,5.0,15.0,30.0,30.0,60.0,RR,59.96783644582565,
24.0,1.0,resp2,stim/left_resp_img.png,"[0.5, 0]",left,stim/silver_coin.png,gold,,,,,training,,,silver,val,,,,,0.0,0.0,0.0,0.0,0.0,1.0,1.0,1.0,,,,,,,,,0.0,training_resp,,93.27237385806802,40.87881318680593,1.0,,left,silver,0.0,184.0,2.0,right,2023_May_09_1636,habits_v_MRI,5.0,40.0,1.0,5.0,30.0,15.0,5.0,15.0,30.0,30.0,60.0,RR,59.96783644582565,
24.0,1.0,resp2,stim/left_resp_img.png,"[0.5, 0]",left,stim/silver_coin.png,gold,,,,,training,,,silver,val,,,,,0.0,0.0,0.0,0.0,0.0,1.0,1.0,1.0,,,,,,,,,0.0,training_resp,,93.82238416565816,41.42877217635396,1.0,8.0,left,silver,1.0,184.0,2.0,right,2023_May_09_1636,habits_v_MRI,5.0,40.0,1.0,5.0,30.0,15.0,5.0,15.0,30.0,30.0,60.0,RR,59.96783644582565,
24.0,1.0,resp2,stim/left_resp_img.png,"[0.5, 0]",left,stim/silver_coin.png,gold,,,,,training,,,silver,val,,,,,0.0,0.0,0.0,0.0,0.0,1.0,1.0,1.0,,,,,,,,,0.0,training_resp,,94.82228798099096,42.42871587314585,1.0,,left,silver,0.0,184.0,2.0,right,2023_May_09_1636,habits_v_MRI,5.0,40.0,1.0,5.0,30.0,15.0,5.0,15.0,30.0,30.0,60.0,RR,59.96783644582565,
24.0,1.0,resp2,stim/left_resp_img.png,"[0.5, 0]",left,stim/silver_coin.png,gold,,,,,training,,,silver,val,,,,,0.0,0.0,0.0,0.0,0.0,1.0,1.0,1.0,,,,,,,,,0.0,training_resp,,95.372320868526,42.978702134569176,1.0,,left,silver,0.0,184.0,2.0,right,2023_May_09_1636,habits_v_MRI,5.0,40.0,1.0,5.0,30.0,15.0,5.0,15.0,30.0,30.0,60.0,RR,59.96783644582565,
24.0,1.0,resp2,stim/left_resp_img.png,"[0.5, 0]",left,stim/silver_coin.png,gold,,,,,training,,,silver,val,,,,,0.0,0.0,0.0,0.0,0.0,1.0,1.0,1.0,,,,,,,,,0.0,training_resp,,95.92226197007405,43.5286373712006,1.0,,left,silver,0.0,184.0,2.0,right,2023_May_09_1636,habits_v_MRI,5.0,40.0,1.0,5.0,30.0,15.0,5.0,15.0,30.0,30.0,60.0,RR,59.96783644582565,
24.0,1.0,resp2,stim/left_resp_img.png,"[0.5, 0]",left,stim/silver_coin.png,gold,,,,,training,,,silver,val,,,,,0.0,0.0,0.0,0.0,0.0,1.0,1.0,1.0,,,,,,,,,0.0,training_resp,,96.47233649852568,44.078611902790726,1.0,,left,silver,0.0,184.0,2.0,right,2023_May_09_1636,habits_v_MRI,5.0,40.0,1.0,5.0,30.0,15.0,5.0,15.0,30.0,30.0,60.0,RR,59.96783644582565,
24.0,1.0,resp2,stim/left_resp_img.png,"[0.5, 0]",left,stim/silver_coin.png,gold,,,,,training,,,silver,val,,,,,0.0,0.0,0.0,0.0,0.0,1.0,1.0,1.0,,,,,,,,,0.0,training_resp,,97.00541038741358,44.61187258933205,1.0,,left,silver,0.0,184.0,2.0,right,2023_May_09_1636,habits_v_MRI,5.0,40.0,1.0,5.0,30.0,15.0,5.0,15.0,30.0,30.0,60.0,RR,59.96783644582565,
24.0,1.0,resp2,stim/left_resp_img.png,"[0.5, 0]",left,stim/silver_coin.png,gold,,,,,training,,,silver,val,,,,,0.0,0.0,0.0,0.0,0.0,1.0,1.0,1.0,,,,,,,,,0.0,training_resp,,97.5220959342405,45.12855725642294,1.0,,left,silver,0.0,184.0,2.0,right,2023_May_09_1636,habits_v_MRI,5.0,40.0,1.0,5.0,30.0,15.0,5.0,15.0,30.0,30.0,60.0,RR,59.96783644582565,
24.0,1.0,resp2,stim/left_resp_img.png,"[0.5, 0]",left,stim/silver_coin.png,gold,,,,,training,,,silver,val,,,,,0.0,0.0,0.0,0.0,0.0,1.0,1.0,1.0,,,,,,,,,0.0,training_resp,,98.02209813357332,45.628558576019714,1.0,,left,silver,0.0,184.0,2.0,right,2023_May_09_1636,habits_v_MRI,5.0,40.0,1.0,5.0,30.0,15.0,5.0,15.0,30.0,30.0,60.0,RR,59.96783644582565,
24.0,1.0,resp2,stim/left_resp_img.png,"[0.5, 0]",left,stim/silver_coin.png,gold,,,,,training,,,silver,val,,,,,0.0,0.0,0.0,0.0,0.0,1.0,1.0,1.0,,,,,,,,,0.0,training_resp,,99.10533276521892,46.71177942510985,1.0,15.0,left,silver,1.0,184.0,2.0,right,2023_May_09_1636,habits_v_MRI,5.0,40.0,1.0,5.0,30.0,15.0,5.0,15.0,30.0,30.0,60.0,RR,59.96783644582565,
24.0,1.0,resp2,stim/left_resp_img.png,"[0.5, 0]",left,stim/silver_coin.png,gold,,,,,training,,,silver,val,,,,,0.0,0.0,0.0,0.0,0.0,1.0,1.0,1.0,,,,,,,,,0.0,training_resp,,99.80531080109358,47.41177593548491,1.0,,left,silver,0.0,184.0,2.0,right,2023_May_09_1636,habits_v_MRI,5.0,40.0,1.0,5.0,30.0,15.0,5.0,15.0,30.0,30.0,60.0,RR,59.96783644582565,
24.0,1.0,resp2,stim/left_resp_img.png,"[0.5, 0]",left,stim/silver_coin.png,gold,,,,,training,,,silver,val,,,,,0.0,0.0,0.0,0.0,0.0,1.0,1.0,1.0,,,,,,,,,0.0,training_resp,,100.3052795704134,47.91174822373432,1.0,,left,silver,0.0,184.0,2.0,right,2023_May_09_1636,habits_v_MRI,5.0,40.0,1.0,5.0,30.0,15.0,5.0,15.0,30.0,30.0,60.0,RR,59.96783644582565,
24.0,1.0,resp2,stim/left_resp_img.png,"[0.5, 0]",left,stim/silver_coin.png,gold,,,,,training,,,silver,val,,,,,0.0,0.0,0.0,0.0,0.0,1.0,1.0,1.0,,,,,,,,,0.0,training_resp,,100.80555800741422,48.41165775737318,1.0,,left,silver,0.0,184.0,2.0,right,2023_May_09_1636,habits_v_MRI,5.0,40.0,1.0,5.0,30.0,15.0,5.0,15.0,30.0,30.0,60.0,RR,59.96783644582565,
24.0,1.0,resp2,stim/left_resp_img.png,"[0.5, 0]",left,stim/silver_coin.png,gold,,,,,training,,,silver,val,,,,,0.0,0.0,0.0,0.0,0.0,1.0,1.0,1.0,,,,,,,,,0.0,training_resp,,101.27187915217657,48.87832317285938,1.0,,left,silver,0.0,184.0,2.0,right,2023_May_09_1636,habits_v_MRI,5.0,40.0,1.0,5.0,30.0,15.0,5.0,15.0,30.0,30.0,60.0,RR,59.96783644582565,
24.0,1.0,resp2,stim/left_resp_img.png,"[0.5, 0]",left,stim/silver_coin.png,gold,,,,,training,,,silver,val,,,,,0.0,0.0,0.0,0.0,0.0,1.0,1.0,1.0,,,,,,,,,0.0,training_resp,,101.821857495961,49.42828245565761,1.0,,left,silver,0.0,184.0,2.0,right,2023_May_09_1636,habits_v_MRI,5.0,40.0,1.0,5.0,30.0,15.0,5.0,15.0,30.0,30.0,60.0,RR,59.96783644582565,
24.0,1.0,resp2,stim/left_resp_img.png,"[0.5, 0]",left,stim/silver_coin.png,gold,,,,,training,,,silver,val,,,,,0.0,0.0,0.0,0.0,0.0,1.0,1.0,1.0,,,,,,,,,0.0,training_resp,,102.30532267755189,49.91164148222015,1.0,,left,silver,0.0,184.0,2.0,right,2023_May_09_1636,habits_v_MRI,5.0,40.0,1.0,5.0,30.0,15.0,5.0,15.0,30.0,30.0,60.0,RR,59.96783644582565,
24.0,1.0,resp2,stim/left_resp_img.png,"[0.5, 0]",left,stim/silver_coin.png,gold,,,,,training,,,silver,val,,,,,0.0,0.0,0.0,0.0,0.0,1.0,1.0,1.0,,,,,,,,,0.0,training_resp,,102.7717077499401,50.37817053834442,1.0,,left,silver,0.0,184.0,2.0,right,2023_May_09_1636,habits_v_MRI,5.0,40.0,1.0,5.0,30.0,15.0,5.0,15.0,30.0,30.0,60.0,RR,59.96783644582565,
24.0,1.0,resp2,stim/left_resp_img.png,"[0.5, 0]",left,stim/silver_coin.png,gold,,,,,training,,,silver,val,,,,,0.0,0.0,0.0,0.0,0.0,1.0,1.0,1.0,,,,,,,,,0.0,training_resp,,103.27184894784295,50.87818505402538,1.0,,left,silver,0.0,184.0,2.0,right,2023_May_09_1636,habits_v_MRI,5.0,40.0,1.0,5.0,30.0,15.0,5.0,15.0,30.0,30.0,60.0,RR,59.96783644582565,
24.0,1.0,resp2,stim/left_resp_img.png,"[0.5, 0]",left,stim/silver_coin.png,gold,,,,,training,,,silver,val,,,,,0.0,0.0,0.0,0.0,0.0,1.0,1.0,1.0,,,,,,,,,0.0,training_resp,,103.75515812259982,51.36152853854583,1.0,,left,silver,0.0,184.0,2.0,right,2023_May_09_1636,habits_v_MRI,5.0,40.0,1.0,5.0,30.0,15.0,5.0,15.0,30.0,30.0,60.0,RR,59.96783644582565,
24.0,1.0,resp2,stim/left_resp_img.png,"[0.5, 0]",left,stim/silver_coin.png,gold,,,,,training,,,silver,val,,,,,0.0,0.0,0.0,0.0,0.0,1.0,1.0,1.0,,,,,,,,,0.0,training_resp,,104.75515548339172,52.36148249893449,1.0,,left,silver,0.0,184.0,2.0,right,2023_May_09_1636,habits_v_MRI,5.0,40.0,1.0,5.0,30.0,15.0,5.0,15.0,30.0,30.0,60.0,RR,59.96783644582565,
24.0,1.0,resp2,stim/left_resp_img.png,"[0.5, 0]",left,stim/silver_coin.png,gold,,,,,training,,,silver,val,,,,,0.0,0.0,0.0,0.0,0.0,1.0,1.0,1.0,,,,,,,,,0.0,training_resp,,105.30533675335757,52.91149720521935,1.0,,left,silver,0.0,184.0,2.0,right,2023_May_09_1636,habits_v_MRI,5.0,40.0,1.0,5.0,30.0,15.0,5.0,15.0,30.0,30.0,60.0,RR,59.96783644582565,
24.0,1.0,resp2,stim/left_resp_img.png,"[0.5, 0]",left,stim/silver_coin.png,gold,,,,,training,,,silver,val,,,,,0.0,0.0,0.0,0.0,0.0,1.0,1.0,1.0,,,,,,,,,0.0,training_resp,,105.77164587503648,53.378079045622144,1.0,,left,silver,0.0,184.0,2.0,right,2023_May_09_1636,habits_v_MRI,5.0,40.0,1.0,5.0,30.0,15.0,5.0,15.0,30.0,30.0,60.0,RR,59.96783644582565,
24.0,1.0,resp2,stim/left_resp_img.png,"[0.5, 0]",left,stim/silver_coin.png,gold,,,,,training,,,silver,val,,,,,0.0,0.0,0.0,0.0,0.0,1.0,1.0,1.0,,,,,,,,,0.0,training_resp,,106.32152246248734,53.92790343529487,1.0,,left,silver,0.0,184.0,2.0,right,2023_May_09_1636,habits_v_MRI,5.0,40.0,1.0,5.0,30.0,15.0,5.0,15.0,30.0,30.0,60.0,RR,59.96783644582565,
24.0,1.0,resp2,stim/left_resp_img.png,"[0.5, 0]",left,stim/silver_coin.png,gold,,,,,training,,,silver,val,,,,,0.0,0.0,0.0,0.0,0.0,1.0,1.0,1.0,,,,,,,,,0.0,training_resp,,106.83830038177256,54.44463179601007,1.0,,left,silver,0.0,184.0,2.0,right,2023_May_09_1636,habits_v_MRI,5.0,40.0,1.0,5.0,30.0,15.0,5.0,15.0,30.0,30.0,60.0,RR,59.96783644582565,
24.0,1.0,resp2,stim/left_resp_img.png,"[0.5, 0]",left,stim/silver_coin.png,gold,,,,,training,,,silver,val,,,,,0.0,0.0,0.0,0.0,0.0,1.0,1.0,1.0,,,,,,,,,0.0,training_resp,,107.37151326923048,54.97792825856595,1.0,5.0,left,silver,1.0,184.0,2.0,right,2023_May_09_1636,habits_v_MRI,5.0,40.0,1.0,5.0,30.0,15.0,5.0,15.0,30.0,30.0,60.0,RR,59.96783644582565,
24.0,1.0,resp2,stim/left_resp_img.png,"[0.5, 0]",left,stim/silver_coin.png,gold,,,,,training,,,silver,val,,,,,0.0,0.0,0.0,0.0,0.0,1.0,1.0,1.0,,,,,,,,,0.0,training_resp,,107.88822784739024,55.49456043461396,1.0,,left,silver,0.0,184.0,2.0,right,2023_May_09_1636,habits_v_MRI,5.0,40.0,1.0,5.0,30.0,15.0,5.0,15.0,30.0,30.0,60.0,RR,59.96783644582565,
24.0,1.0,resp2,stim/left_resp_img.png,"[0.5, 0]",left,stim/silver_coin.png,gold,,,,,training,,,silver,val,,,,,0.0,0.0,0.0,0.0,0.0,1.0,1.0,1.0,,,,,,,,,0.0,training_resp,,108.37147368103616,55.97787400806556,1.0,,left,silver,0.0,184.0,2.0,right,2023_May_09_1636,habits_v_MRI,5.0,40.0,1.0,5.0,30.0,15.0,5.0,15.0,30.0,30.0,60.0,RR,59.96783644582565,
24.0,1.0,resp2,stim/left_resp_img.png,"[0.5, 0]",left,stim/silver_coin.png,gold,,,,,training,,,silver,val,,,,,0.0,0.0,0.0,0.0,0.0,1.0,1.0,1.0,,,,,,,,,0.0,training_resp,,108.88807594600075,56.49447216760018,1.0,,left,silver,0.0,184.0,2.0,right,2023_May_09_1636,habits_v_MRI,5.0,40.0,1.0,5.0,30.0,15.0,5.0,15.0,30.0,30.0,60.0,RR,59.96783644582565,
24.0,1.0,resp2,stim/left_resp_img.png,"[0.5, 0]",left,stim/silver_coin.png,gold,,,,,training,,,silver,val,,,,,0.0,0.0,0.0,0.0,0.0,1.0,1.0,1.0,,,,,,,,,0.0,training_resp,,109.37138775998028,56.977788673495525,1.0,,left,silver,0.0,184.0,2.0,right,2023_May_09_1636,habits_v_MRI,5.0,40.0,1.0,5.0,30.0,15.0,5.0,15.0,30.0,30.0,60.0,RR,59.96783644582565,
24.0,1.0,resp2,stim/left_resp_img.png,"[0.5, 0]",left,stim/silver_coin.png,gold,,,,,training,,,silver,val,,,,,0.0,0.0,0.0,0.0,0.0,1.0,1.0,1.0,,,,,,,,,0.0,training_resp,,109.90482204810542,57.511170470606885,1.0,20.0,left,silver,1.0,184.0,2.0,right,2023_May_09_1636,habits_v_MRI,5.0,40.0,1.0,5.0,30.0,15.0,5.0,15.0,30.0,30.0,60.0,RR,59.96783644582565,
24.0,1.0,resp2,stim/left_resp_img.png,"[0.5, 0]",left,stim/silver_coin.png,gold,,,,,training,,,silver,val,,,,,0.0,0.0,0.0,0.0,0.0,1.0,1.0,1.0,,,,,,,,,0.0,training_resp,,110.488040404598,58.09442137739097,1.0,,left,silver,0.0,184.0,2.0,right,2023_May_09_1636,habits_v_MRI,5.0,40.0,1.0,5.0,30.0,15.0,5.0,15.0,30.0,30.0,60.0,RR,59.96783644582565,
24.0,1.0,resp2,stim/left_resp_img.png,"[0.5, 0]",left,stim/silver_coin.png,gold,,,,,training,,,silver,val,,,,,0.0,0.0,0.0,0.0,0.0,1.0,1.0,1.0,,,,,,,,,0.0,training_resp,,111.00459956242412,58.61101689771749,1.0,,left,silver,0.0,184.0,2.0,right,2023_May_09_1636,habits_v_MRI,5.0,40.0,1.0,5.0,30.0,15.0,5.0,15.0,30.0,30.0,60.0,RR,59.96783644582565,
24.0,1.0,resp2,stim/left_resp_img.png,"[0.5, 0]",left,stim/silver_coin.png,gold,,,,,training,,,silver,val,,,,,0.0,0.0,0.0,0.0,0.0,1.0,1.0,1.0,,,,,,,,,0.0,training_resp,,111.50463372557716,59.11106542991183,1.0,,left,silver,0.0,184.0,2.0,right,2023_May_09_1636,habits_v_MRI,5.0,40.0,1.0,5.0,30.0,15.0,5.0,15.0,30.0,30.0,60.0,RR,59.96783644582565,
24.0,1.0,resp2,stim/left_resp_img.png,"[0.5, 0]",left,stim/silver_coin.png,gold,,,,,training,,,silver,val,,,,,0.0,0.0,0.0,0.0,0.0,1.0,1.0,1.0,,,,,,,,,0.0,training_resp,,112.03789529185453,59.64431350688392,1.0,,left,silver,0.0,184.0,2.0,right,2023_May_09_1636,habits_v_MRI,5.0,40.0,1.0,5.0,30.0,15.0,5.0,15.0,30.0,30.0,60.0,RR,59.96783644582565,
24.0,1.0,resp2,stim/left_resp_img.png,"[0.5, 0]",left,stim/silver_coin.png,gold,,,,,training,,,silver,val,,,,,0.0,0.0,0.0,0.0,0.0,1.0,1.0,1.0,,,,,,,,,0.0,ITI_start,18.33333333333333,112.13908390558208,59.7443446789257,,,,,,184.0,2.0,right,2023_May_09_1636,habits_v_MRI,5.0,40.0,1.0,5.0,30.0,15.0,5.0,15.0,30.0,30.0,60.0,RR,59.96783644582565,
24.0,0.0,resp1,stim/right_resp_img.png,"[-0.5, 0]",right,stim/gold_coin.png,gold,,,,,training,,,gold,deval,,,,,0.0,0.0,0.0,0.0,1.0,0.0,2.0,0.0,,,,,,,,,0.0,training_period_start,45.0,130.50774535813252,0.0,2.0,17.0,,,,184.0,2.0,right,2023_May_09_1636,habits_v_MRI,5.0,40.0,1.0,5.0,30.0,15.0,5.0,15.0,30.0,30.0,60.0,RR,59.96783644582565,
24.0,0.0,resp1,stim/right_resp_img.png,"[-0.5, 0]",right,stim/gold_coin.png,gold,,,,,training,,,gold,deval,,,,,0.0,0.0,0.0,0.0,1.0,0.0,2.0,0.0,,,,,,,,,0.0,training_resp,,131.36973971784755,0.8813679453451186,2.0,,right,gold,0.0,184.0,2.0,right,2023_May_09_1636,habits_v_MRI,5.0,40.0,1.0,5.0,30.0,15.0,5.0,15.0,30.0,30.0,60.0,RR,59.96783644582565,
24.0,0.0,resp1,stim/right_resp_img.png,"[-0.5, 0]",right,stim/gold_coin.png,gold,,,,,training,,,gold,deval,,,,,0.0,0.0,0.0,0.0,1.0,0.0,2.0,0.0,,,,,,,,,0.0,training_resp,,131.90294292817998,1.414645640150411,2.0,,right,gold,0.0,184.0,2.0,right,2023_May_09_1636,habits_v_MRI,5.0,40.0,1.0,5.0,30.0,15.0,5.0,15.0,30.0,30.0,60.0,RR,59.96783644582565,
24.0,0.0,resp1,stim/right_resp_img.png,"[-0.5, 0]",right,stim/gold_coin.png,gold,,,,,training,,,gold,deval,,,,,0.0,0.0,0.0,0.0,1.0,0.0,2.0,0.0,,,,,,,,,0.0,training_resp,,132.90290011427714,2.414591682900209,2.0,,right,gold,0.0,184.0,2.0,right,2023_May_09_1636,habits_v_MRI,5.0,40.0,1.0,5.0,30.0,15.0,5.0,15.0,30.0,30.0,60.0,RR,59.96783644582565,
24.0,0.0,resp1,stim/right_resp_img.png,"[-0.5, 0]",right,stim/gold_coin.png,gold,,,,,training,,,gold,deval,,,,,0.0,0.0,0.0,0.0,1.0,0.0,2.0,0.0,,,,,,,,,0.0,training_resp,,133.78617034597846,3.2978548766841413,2.0,,right,gold,0.0,184.0,2.0,right,2023_May_09_1636,habits_v_MRI,5.0,40.0,1.0,5.0,30.0,15.0,5.0,15.0,30.0,30.0,60.0,RR,59.96783644582565,
24.0,0.0,resp1,stim/right_resp_img.png,"[-0.5, 0]",right,stim/gold_coin.png,gold,,,,,training,,,gold,deval,,,,,0.0,0.0,0.0,0.0,1.0,0.0,2.0,0.0,,,,,,,,,0.0,training_resp,,134.71958709800674,4.231203595656552,2.0,,right,gold,0.0,184.0,2.0,right,2023_May_09_1636,habits_v_MRI,5.0,40.0,1.0,5.0,30.0,15.0,5.0,15.0,30.0,30.0,60.0,RR,59.96783644582565,
24.0,0.0,resp1,stim/right_resp_img.png,"[-0.5, 0]",right,stim/gold_coin.png,gold,,,,,training,,,gold,deval,,,,,0.0,0.0,0.0,0.0,1.0,0.0,2.0,0.0,,,,,,,,,0.0,training_resp,,135.68596205339418,5.197626936627785,2.0,,right,gold,0.0,184.0,2.0,right,2023_May_09_1636,habits_v_MRI,5.0,40.0,1.0,5.0,30.0,15.0,5.0,15.0,30.0,30.0,60.0,RR,59.96783644582565,
24.0,0.0,resp1,stim/right_resp_img.png,"[-0.5, 0]",right,stim/gold_coin.png,gold,,,,,training,,,gold,deval,,,,,0.0,0.0,0.0,0.0,1.0,0.0,2.0,0.0,,,,,,,,,0.0,training_resp,,136.2365037226118,5.74797037159442,2.0,,right,gold,0.0,184.0,2.0,right,2023_May_09_1636,habits_v_MRI,5.0,40.0,1.0,5.0,30.0,15.0,5.0,15.0,30.0,30.0,60.0,RR,59.96783644582565,
24.0,0.0,resp1,stim/right_resp_img.png,"[-0.5, 0]",right,stim/gold_coin.png,gold,,,,,training,,,gold,deval,,,,,0.0,0.0,0.0,0.0,1.0,0.0,2.0,0.0,,,,,,,,,0.0,training_resp,,137.11922499792126,6.630949703336228,2.0,,right,gold,0.0,184.0,2.0,right,2023_May_09_1636,habits_v_MRI,5.0,40.0,1.0,5.0,30.0,15.0,5.0,15.0,30.0,30.0,60.0,RR,59.96783644582565,
24.0,0.0,resp1,stim/right_resp_img.png,"[-0.5, 0]",right,stim/gold_coin.png,gold,,,,,training,,,gold,deval,,,,,0.0,0.0,0.0,0.0,1.0,0.0,2.0,0.0,,,,,,,,,0.0,training_resp,,137.70260610591504,7.214300606981851,2.0,,right,gold,0.0,184.0,2.0,right,2023_May_09_1636,habits_v_MRI,5.0,40.0,1.0,5.0,30.0,15.0,5.0,15.0,30.0,30.0,60.0,RR,59.96783644582565,
24.0,0.0,resp1,stim/right_resp_img.png,"[-0.5, 0]",right,stim/gold_coin.png,gold,,,,,training,,,gold,deval,,,,,0.0,0.0,0.0,0.0,1.0,0.0,2.0,0.0,,,,,,,,,0.0,training_resp,,138.2695416888746,7.781046459829668,2.0,,right,gold,0.0,184.0,2.0,right,2023_May_09_1636,habits_v_MRI,5.0,40.0,1.0,5.0,30.0,15.0,5.0,15.0,30.0,30.0,60.0,RR,59.96783644582565,
24.0,0.0,resp1,stim/right_resp_img.png,"[-0.5, 0]",right,stim/gold_coin.png,gold,,,,,training,,,gold,deval,,,,,0.0,0.0,0.0,0.0,1.0,0.0,2.0,0.0,,,,,,,,,0.0,training_resp,,138.80284430958272,8.314395999885164,2.0,,right,gold,0.0,184.0,2.0,right,2023_May_09_1636,habits_v_MRI,5.0,40.0,1.0,5.0,30.0,15.0,5.0,15.0,30.0,30.0,60.0,RR,59.96783644582565,
24.0,0.0,resp1,stim/right_resp_img.png,"[-0.5, 0]",right,stim/gold_coin.png,gold,,,,,training,,,gold,deval,,,,,0.0,0.0,0.0,0.0,1.0,0.0,2.0,0.0,,,,,,,,,0.0,training_resp,,139.33611584622122,8.847667829773854,2.0,,right,gold,0.0,184.0,2.0,right,2023_May_09_1636,habits_v_MRI,5.0,40.0,1.0,5.0,30.0,15.0,5.0,15.0,30.0,30.0,60.0,RR,59.96783644582565,
24.0,0.0,resp1,stim/right_resp_img.png,"[-0.5, 0]",right,stim/gold_coin.png,gold,,,,,training,,,gold,deval,,,,,0.0,0.0,0.0,0.0,1.0,0.0,2.0,0.0,,,,,,,,,0.0,training_resp,,139.9027945457492,9.414284361162572,2.0,,right,gold,0.0,184.0,2.0,right,2023_May_09_1636,habits_v_MRI,5.0,40.0,1.0,5.0,30.0,15.0,5.0,15.0,30.0,30.0,60.0,RR,59.96783644582565,
24.0,0.0,resp1,stim/right_resp_img.png,"[-0.5, 0]",right,stim/gold_coin.png,gold,,,,,training,,,gold,deval,,,,,0.0,0.0,0.0,0.0,1.0,0.0,2.0,0.0,,,,,,,,,0.0,training_resp,,140.45271775929723,9.964258306266856,2.0,,right,gold,0.0,184.0,2.0,right,2023_May_09_1636,habits_v_MRI,5.0,40.0,1.0,5.0,30.0,15.0,5.0,15.0,30.0,30.0,60.0,RR,59.96783644582565,
24.0,0.0,resp1,stim/right_resp_img.png,"[-0.5, 0]",right,stim/gold_coin.png,gold,,,,,training,,,gold,deval,,,,,0.0,0.0,0.0,0.0,1.0,0.0,2.0,0.0,,,,,,,,,0.0,training_resp,,140.9192409505049,10.430858327905298,2.0,,right,gold,0.0,184.0,2.0,right,2023_May_09_1636,habits_v_MRI,5.0,40.0,1.0,5.0,30.0,15.0,5.0,15.0,30.0,30.0,60.0,RR,59.96783644582565,
24.0,0.0,resp1,stim/right_resp_img.png,"[-0.5, 0]",right,stim/gold_coin.png,gold,,,,,training,,,gold,deval,,,,,0.0,0.0,0.0,0.0,1.0,0.0,2.0,0.0,,,,,,,,,0.0,training_resp,,141.4692236929841,10.980800602439558,2.0,,right,gold,0.0,184.0,2.0,right,2023_May_09_1636,habits_v_MRI,5.0,40.0,1.0,5.0,30.0,15.0,5.0,15.0,30.0,30.0,60.0,RR,59.96783644582565,
24.0,0.0,resp1,stim/right_resp_img.png,"[-0.5, 0]",right,stim/gold_coin.png,gold,,,,,training,,,gold,deval,,,,,0.0,0.0,0.0,0.0,1.0,0.0,2.0,0.0,,,,,,,,,0.0,training_resp,,141.96919216903916,11.480777875884089,2.0,5.0,right,gold,1.0,184.0,2.0,right,2023_May_09_1636,habits_v_MRI,5.0,40.0,1.0,5.0,30.0,15.0,5.0,15.0,30.0,30.0,60.0,RR,59.96783644582565,
24.0,0.0,resp1,stim/right_resp_img.png,"[-0.5, 0]",right,stim/gold_coin.png,gold,,,,,training,,,gold,deval,,,,,0.0,0.0,0.0,0.0,1.0,0.0,2.0,0.0,,,,,,,,,0.0,training_resp,,142.5525504038378,12.064118515932932,2.0,,right,gold,0.0,184.0,2.0,right,2023_May_09_1636,habits_v_MRI,5.0,40.0,1.0,5.0,30.0,15.0,5.0,15.0,30.0,30.0,60.0,RR,59.96783644582565,
24.0,0.0,resp1,stim/right_resp_img.png,"[-0.5, 0]",right,stim/gold_coin.png,gold,,,,,training,,,gold,deval,,,,,0.0,0.0,0.0,0.0,1.0,0.0,2.0,0.0,,,,,,,,,0.0,training_resp,,143.53586881584488,13.047411708772415,2.0,,right,gold,0.0,184.0,2.0,right,2023_May_09_1636,habits_v_MRI,5.0,40.0,1.0,5.0,30.0,15.0,5.0,15.0,30.0,30.0,60.0,RR,59.96783644582565,
24.0,0.0,resp1,stim/right_resp_img.png,"[-0.5, 0]",right,stim/gold_coin.png,gold,,,,,training,,,gold,deval,,,,,0.0,0.0,0.0,0.0,1.0,0.0,2.0,0.0,,,,,,,,,0.0,training_resp,,144.0358041551226,13.54736640228657,2.0,,right,gold,0.0,184.0,2.0,right,2023_May_09_1636,habits_v_MRI,5.0,40.0,1.0,5.0,30.0,15.0,5.0,15.0,30.0,30.0,60.0,RR,59.96783644582565,
24.0,0.0,resp1,stim/right_resp_img.png,"[-0.5, 0]",right,stim/gold_coin.png,gold,,,,,training,,,gold,deval,,,,,0.0,0.0,0.0,0.0,1.0,0.0,2.0,0.0,,,,,,,,,0.0,training_resp,,144.56911703944206,14.080603629146935,2.0,,right,gold,0.0,184.0,2.0,right,2023_May_09_1636,habits_v_MRI,5.0,40.0,1.0,5.0,30.0,15.0,5.0,15.0,30.0,30.0,60.0,RR,59.96783644582565,
24.0,0.0,resp1,stim/right_resp_img.png,"[-0.5, 0]",right,stim/gold_coin.png,gold,,,,,training,,,gold,deval,,,,,0.0,0.0,0.0,0.0,1.0,0.0,2.0,0.0,,,,,,,,,0.0,training_resp,,145.56906542814977,15.080557882785795,2.0,20.0,right,gold,1.0,184.0,2.0,right,2023_May_09_1636,habits_v_MRI,5.0,40.0,1.0,5.0,30.0,15.0,5.0,15.0,30.0,30.0,60.0,RR,59.96783644582565,
24.0,0.0,resp1,stim/right_resp_img.png,"[-0.5, 0]",right,stim/gold_coin.png,gold,,,,,training,,,gold,deval,,,,,0.0,0.0,0.0,0.0,1.0,0.0,2.0,0.0,,,,,,,,,0.0,training_resp,,146.2189849174756,15.730505816973164,2.0,,right,gold,0.0,184.0,2.0,right,2023_May_09_1636,habits_v_MRI,5.0,40.0,1.0,5.0,30.0,15.0,5.0,15.0,30.0,30.0,60.0,RR,59.96783644582565,
24.0,0.0,resp1,stim/right_resp_img.png,"[-0.5, 0]",right,stim/gold_coin.png,gold,,,,,training,,,gold,deval,,,,,0.0,0.0,0.0,0.0,1.0,0.0,2.0,0.0,,,,,,,,,0.0,training_resp,,146.71925954229664,16.23048133093107,2.0,,right,gold,0.0,184.0,2.0,right,2023_May_09_1636,habits_v_MRI,5.0,40.0,1.0,5.0,30.0,15.0,5.0,15.0,30.0,30.0,60.0,RR,59.96783644582565,
24.0,0.0,resp1,stim/right_resp_img.png,"[-0.5, 0]",right,stim/gold_coin.png,gold,,,,,training,,,gold,deval,,,,,0.0,0.0,0.0,0.0,1.0,0.0,2.0,0.0,,,,,,,,,0.0,training_resp,,147.16882784030167,16.68043084864621,2.0,,right,gold,0.0,184.0,2.0,right,2023_May_09_1636,habits_v_MRI,5.0,40.0,1.0,5.0,30.0,15.0,5.0,15.0,30.0,30.0,60.0,RR,59.96783644582565,
24.0,0.0,resp1,stim/right_resp_img.png,"[-0.5, 0]",right,stim/gold_coin.png,gold,,,,,training,,,gold,deval,,,,,0.0,0.0,0.0,0.0,1.0,0.0,2.0,0.0,,,,,,,,,0.0,training_resp,,147.6356384125247,17.147172508077347,2.0,,right,gold,0.0,184.0,2.0,right,2023_May_09_1636,habits_v_MRI,5.0,40.0,1.0,5.0,30.0,15.0,5.0,15.0,30.0,30.0,60.0,RR,59.96783644582565,
24.0,0.0,resp1,stim/right_resp_img.png,"[-0.5, 0]",right,stim/gold_coin.png,gold,,,,,training,,,gold,deval,,,,,0.0,0.0,0.0,0.0,1.0,0.0,2.0,0.0,,,,,,,,,0.0,training_resp,,148.11885492155852,17.630404265903053,2.0,,right,gold,0.0,184.0,2.0,right,2023_May_09_1636,habits_v_MRI,5.0,40.0,1.0,5.0,30.0,15.0,5.0,15.0,30.0,30.0,60.0,RR,59.96783644582565,
24.0,0.0,resp1,stim/right_resp_img.png,"[-0.5, 0]",right,stim/gold_coin.png,gold,,,,,training,,,gold,deval,,,,,0.0,0.0,0.0,0.0,1.0,0.0,2.0,0.0,,,,,,,,,0.0,training_resp,,148.5855437967257,18.09711190880625,2.0,,right,gold,0.0,184.0,2.0,right,2023_May_09_1636,habits_v_MRI,5.0,40.0,1.0,5.0,30.0,15.0,5.0,15.0,30.0,30.0,60.0,RR,59.96783644582565,
24.0,0.0,resp1,stim/right_resp_img.png,"[-0.5, 0]",right,stim/gold_coin.png,gold,,,,,training,,,gold,deval,,,,,0.0,0.0,0.0,0.0,1.0,0.0,2.0,0.0,,,,,,,,,0.0,training_resp,,149.06886616753764,18.5803923454514,2.0,,right,gold,0.0,184.0,2.0,right,2023_May_09_1636,habits_v_MRI,5.0,40.0,1.0,5.0,30.0,15.0,5.0,15.0,30.0,30.0,60.0,RR,59.96783644582565,
24.0,0.0,resp1,stim/right_resp_img.png,"[-0.5, 0]",right,stim/gold_coin.png,gold,,,,,training,,,gold,deval,,,,,0.0,0.0,0.0,0.0,1.0,0.0,2.0,0.0,,,,,,,,,0.0,training_resp,,149.53551340177364,19.046988261659862,2.0,,right,gold,0.0,184.0,2.0,right,2023_May_09_1636,habits_v_MRI,5.0,40.0,1.0,5.0,30.0,15.0,5.0,15.0,30.0,30.0,60.0,RR,59.96783644582565,
24.0,0.0,resp1,stim/right_resp_img.png,"[-0.5, 0]",right,stim/gold_coin.png,gold,,,,,training,,,gold,deval,,,,,0.0,0.0,0.0,0.0,1.0,0.0,2.0,0.0,,,,,,,,,0.0,training_resp,,150.0020729554817,19.513621420090203,2.0,,right,gold,0.0,184.0,2.0,right,2023_May_09_1636,habits_v_MRI,5.0,40.0,1.0,5.0,30.0,15.0,5.0,15.0,30.0,30.0,60.0,RR,59.96783644582565,
24.0,0.0,resp1,stim/right_resp_img.png,"[-0.5, 0]",right,stim/gold_coin.png,gold,,,,,training,,,gold,deval,,,,,0.0,0.0,0.0,0.0,1.0,0.0,2.0,0.0,,,,,,,,,0.0,training_resp,,150.4355285625934,19.946984068243182,2.0,,right,gold,0.0,184.0,2.0,right,2023_May_09_1636,habits_v_MRI,5.0,40.0,1.0,5.0,30.0,15.0,5.0,15.0,30.0,30.0,60.0,RR,59.96783644582565,
24.0,0.0,resp1,stim/right_resp_img.png,"[-0.5, 0]",right,stim/gold_coin.png,gold,,,,,training,,,gold,deval,,,,,0.0,0.0,0.0,0.0,1.0,0.0,2.0,0.0,,,,,,,,,0.0,training_resp,,150.9688329427736,20.48021806939505,2.0,,right,gold,0.0,184.0,2.0,right,2023_May_09_1636,habits_v_MRI,5.0,40.0,1.0,5.0,30.0,15.0,5.0,15.0,30.0,30.0,60.0,RR,59.96783644582565,
24.0,0.0,resp1,stim/right_resp_img.png,"[-0.5, 0]",right,stim/gold_coin.png,gold,,,,,training,,,gold,deval,,,,,0.0,0.0,0.0,0.0,1.0,0.0,2.0,0.0,,,,,,,,,0.0,training_resp,,151.43534762985655,20.946858265728224,2.0,,right,gold,0.0,184.0,2.0,right,2023_May_09_1636,habits_v_MRI,5.0,40.0,1.0,5.0,30.0,15.0,5.0,15.0,30.0,30.0,60.0,RR,59.96783644582565,
24.0,0.0,resp1,stim/right_resp_img.png,"[-0.5, 0]",right,stim/gold_coin.png,gold,,,,,training,,,gold,deval,,,,,0.0,0.0,0.0,0.0,1.0,0.0,2.0,0.0,,,,,,,,,0.0,training_resp,,151.95190004301548,21.463460823957572,2.0,,right,gold,0.0,184.0,2.0,right,2023_May_09_1636,habits_v_MRI,5.0,40.0,1.0,5.0,30.0,15.0,5.0,15.0,30.0,30.0,60.0,RR,59.96783644582565,
24.0,0.0,resp1,stim/right_resp_img.png,"[-0.5, 0]",right,stim/gold_coin.png,gold,,,,,training,,,gold,deval,,,,,0.0,0.0,0.0,0.0,1.0,0.0,2.0,0.0,,,,,,,,,0.0,training_resp,,152.78523342522385,22.29679361966555,2.0,,right,gold,0.0,184.0,2.0,right,2023_May_09_1636,habits_v_MRI,5.0,40.0,1.0,5.0,30.0,15.0,5.0,15.0,30.0,30.0,60.0,RR,59.96783644582565,
24.0,0.0,resp1,stim/right_resp_img.png,"[-0.5, 0]",right,stim/gold_coin.png,gold,,,,,training,,,gold,deval,,,,,0.0,0.0,0.0,0.0,1.0,0.0,2.0,0.0,,,,,,,,,0.0,training_resp,,153.25189884071006,22.76341944695741,2.0,,right,gold,0.0,184.0,2.0,right,2023_May_09_1636,habits_v_MRI,5.0,40.0,1.0,5.0,30.0,15.0,5.0,15.0,30.0,30.0,60.0,RR,59.96783644582565,
24.0,0.0,resp1,stim/right_resp_img.png,"[-0.5, 0]",right,stim/gold_coin.png,gold,,,,,training,,,gold,deval,,,,,0.0,0.0,0.0,0.0,1.0,0.0,2.0,0.0,,,,,,,,,0.0,training_resp,,153.68517703402904,23.19675042454037,2.0,,right,gold,0.0,184.0,2.0,right,2023_May_09_1636,habits_v_MRI,5.0,40.0,1.0,5.0,30.0,15.0,5.0,15.0,30.0,30.0,60.0,RR,59.96783644582565,
24.0,0.0,resp1,stim/right_resp_img.png,"[-0.5, 0]",right,stim/gold_coin.png,gold,,,,,training,,,gold,deval,,,,,0.0,0.0,0.0,0.0,1.0,0.0,2.0,0.0,,,,,,,,,0.0,training_resp,,154.6351700987725,24.14667838868627,2.0,,right,gold,0.0,184.0,2.0,right,2023_May_09_1636,habits_v_MRI,5.0,40.0,1.0,5.0,30.0,15.0,5.0,15.0,30.0,30.0,60.0,RR,59.96783644582565,
24.0,0.0,resp1,stim/right_resp_img.png,"[-0.5, 0]",right,stim/gold_coin.png,gold,,,,,training,,,gold,deval,,,,,0.0,0.0,0.0,0.0,1.0,0.0,2.0,0.0,,,,,,,,,0.0,training_resp,,155.201442652673,24.71309316686529,2.0,,right,gold,0.0,184.0,2.0,right,2023_May_09_1636,habits_v_MRI,5.0,40.0,1.0,5.0,30.0,15.0,5.0,15.0,30.0,30.0,60.0,RR,59.96783644582565,
24.0,0.0,resp1,stim/right_resp_img.png,"[-0.5, 0]",right,stim/gold_coin.png,gold,,,,,training,,,gold,deval,,,,,0.0,0.0,0.0,0.0,1.0,0.0,2.0,0.0,,,,,,,,,0.0,training_resp,,155.85168676525063,25.363195348414592,2.0,,right,gold,0.0,184.0,2.0,right,2023_May_09_1636,habits_v_MRI,5.0,40.0,1.0,5.0,30.0,15.0,5.0,15.0,30.0,30.0,60.0,RR,59.96783644582565,
24.0,0.0,resp1,stim/right_resp_img.png,"[-0.5, 0]",right,stim/gold_coin.png,gold,,,,,training,,,gold,deval,,,,,0.0,0.0,0.0,0.0,1.0,0.0,2.0,0.0,,,,,,,,,0.0,training_resp,,156.3851104965288,25.896607056609355,2.0,23.0,right,gold,1.0,184.0,2.0,right,2023_May_09_1636,habits_v_MRI,5.0,40.0,1.0,5.0,30.0,15.0,5.0,15.0,30.0,30.0,60.0,RR,59.96783644582565,
24.0,0.0,resp1,stim/right_resp_img.png,"[-0.5, 0]",right,stim/gold_coin.png,gold,,,,,training,,,gold,deval,,,,,0.0,0.0,0.0,0.0,1.0,0.0,2.0,0.0,,,,,,,,,0.0,training_resp,,156.918392883279,26.42986158498388,2.0,,right,gold,0.0,184.0,2.0,right,2023_May_09_1636,habits_v_MRI,5.0,40.0,1.0,5.0,30.0,15.0,5.0,15.0,30.0,30.0,60.0,RR,59.96783644582565,
24.0,0.0,resp1,stim/right_resp_img.png,"[-0.5, 0]",right,stim/gold_coin.png,gold,,,,,training,,,gold,deval,,,,,0.0,0.0,0.0,0.0,1.0,0.0,2.0,0.0,,,,,,,,,0.0,training_resp,,157.48497745086206,26.996494538150728,2.0,,right,gold,0.0,184.0,2.0,right,2023_May_09_1636,habits_v_MRI,5.0,40.0,1.0,5.0,30.0,15.0,5.0,15.0,30.0,30.0,60.0,RR,59.96783644582565,
24.0,0.0,resp1,stim/right_resp_img.png,"[-0.5, 0]",right,stim/gold_coin.png,gold,,,,,training,,,gold,deval,,,,,0.0,0.0,0.0,0.0,1.0,0.0,2.0,0.0,,,,,,,,,0.0,training_resp,,157.9682555415493,27.47979814122664,2.0,,right,gold,0.0,184.0,2.0,right,2023_May_09_1636,habits_v_MRI,5.0,40.0,1.0,5.0,30.0,15.0,5.0,15.0,30.0,30.0,60.0,RR,59.96783644582565,
24.0,0.0,resp1,stim/right_resp_img.png,"[-0.5, 0]",right,stim/gold_coin.png,gold,,,,,training,,,gold,deval,,,,,0.0,0.0,0.0,0.0,1.0,0.0,2.0,0.0,,,,,,,,,0.0,training_resp,,158.50165639963234,28.013110439060256,2.0,,right,gold,0.0,184.0,2.0,right,2023_May_09_1636,habits_v_MRI,5.0,40.0,1.0,5.0,30.0,15.0,5.0,15.0,30.0,30.0,60.0,RR,59.96783644582565,
24.0,0.0,resp1,stim/right_resp_img.png,"[-0.5, 0]",right,stim/gold_coin.png,gold,,,,,training,,,gold,deval,,,,,0.0,0.0,0.0,0.0,1.0,0.0,2.0,0.0,,,,,,,,,0.0,training_resp,,159.05180130711233,28.563089369330555,2.0,,right,gold,0.0,184.0,2.0,right,2023_May_09_1636,habits_v_MRI,5.0,40.0,1.0,5.0,30.0,15.0,5.0,15.0,30.0,30.0,60.0,RR,59.96783644582565,
24.0,0.0,resp1,stim/right_resp_img.png,"[-0.5, 0]",right,stim/gold_coin.png,gold,,,,,training,,,gold,deval,,,,,0.0,0.0,0.0,0.0,1.0,0.0,2.0,0.0,,,,,,,,,0.0,training_resp,,159.56807337717328,29.07964970014291,2.0,,right,gold,0.0,184.0,2.0,right,2023_May_09_1636,habits_v_MRI,5.0,40.0,1.0,5.0,30.0,15.0,5.0,15.0,30.0,30.0,60.0,RR,59.96783644582565,
24.0,0.0,resp1,stim/right_resp_img.png,"[-0.5, 0]",right,stim/gold_coin.png,gold,,,,,training,,,gold,deval,,,,,0.0,0.0,0.0,0.0,1.0,0.0,2.0,0.0,,,,,,,,,0.0,training_resp,,160.15165066668123,29.663017318802304,2.0,,right,gold,0.0,184.0,2.0,right,2023_May_09_1636,habits_v_MRI,5.0,40.0,1.0,5.0,30.0,15.0,5.0,15.0,30.0,30.0,60.0,RR,59.96783644582565,
24.0,0.0,resp1,stim/right_resp_img.png,"[-0.5, 0]",right,stim/gold_coin.png,gold,,,,,training,,,gold,deval,,,,,0.0,0.0,0.0,0.0,1.0,0.0,2.0,0.0,,,,,,,,,0.0,training_resp,,160.7180965289299,30.229670505941613,2.0,,right,gold,0.0,184.0,2.0,right,2023_May_09_1636,habits_v_MRI,5.0,40.0,1.0,5.0,30.0,15.0,5.0,15.0,30.0,30.0,60.0,RR,59.96783644582565,
24.0,0.0,resp1,stim/right_resp_img.png,"[-0.5, 0]",right,stim/gold_coin.png,gold,,,,,training,,,gold,deval,,,,,0.0,0.0,0.0,0.0,1.0,0.0,2.0,0.0,,,,,,,,,0.0,training_resp,,161.23479673804832,30.74628831294831,2.0,,right,gold,0.0,184.0,2.0,right,2023_May_09_1636,habits_v_MRI,5.0,40.0,1.0,5.0,30.0,15.0,5.0,15.0,30.0,30.0,60.0,RR,59.96783644582565,
24.0,0.0,resp1,stim/right_resp_img.png,"[-0.5, 0]",right,stim/gold_coin.png,gold,,,,,training,,,gold,deval,,,,,0.0,0.0,0.0,0.0,1.0,0.0,2.0,0.0,,,,,,,,,0.0,training_resp,,162.20172768773045,31.71289551911468,2.0,,right,gold,0.0,184.0,2.0,right,2023_May_09_1636,habits_v_MRI,5.0,40.0,1.0,5.0,30.0,15.0,5.0,15.0,30.0,30.0,60.0,RR,59.96783644582565,
24.0,0.0,resp1,stim/right_resp_img.png,"[-0.5, 0]",right,stim/gold_coin.png,gold,,,,,training,,,gold,deval,,,,,0.0,0.0,0.0,0.0,1.0,0.0,2.0,0.0,,,,,,,,,0.0,training_resp,,162.71796192905458,32.22947109870438,2.0,,right,gold,0.0,184.0,2.0,right,2023_May_09_1636,habits_v_MRI,5.0,40.0,1.0,5.0,30.0,15.0,5.0,15.0,30.0,30.0,60.0,RR,59.96783644582565,
24.0,0.0,resp1,stim/right_resp_img.png,"[-0.5, 0]",right,stim/gold_coin.png,gold,,,,,training,,,gold,deval,,,,,0.0,0.0,0.0,0.0,1.0,0.0,2.0,0.0,,,,,,,,,0.0,training_resp,,163.26794349854754,32.77943859239167,2.0,,right,gold,0.0,184.0,2.0,right,2023_May_09_1636,habits_v_MRI,5.0,40.0,1.0,5.0,30.0,15.0,5.0,15.0,30.0,30.0,60.0,RR,59.96783644582565,
24.0,0.0,resp1,stim/right_resp_img.png,"[-0.5, 0]",right,stim/gold_coin.png,gold,,,,,training,,,gold,deval,,,,,0.0,0.0,0.0,0.0,1.0,0.0,2.0,0.0,,,,,,,,,0.0,training_resp,,163.73473940846452,33.246102248405805,2.0,,right,gold,0.0,184.0,2.0,right,2023_May_09_1636,habits_v_MRI,5.0,40.0,1.0,5.0,30.0,15.0,5.0,15.0,30.0,30.0,60.0,RR,59.96783644582565,
24.0,0.0,resp1,stim/right_resp_img.png,"[-0.5, 0]",right,stim/gold_coin.png,gold,,,,,training,,,gold,deval,,,,,0.0,0.0,0.0,0.0,1.0,0.0,2.0,0.0,,,,,,,,,0.0,training_resp,,164.23454249382485,33.74604550530785,2.0,,right,gold,0.0,184.0,2.0,right,2023_May_09_1636,habits_v_MRI,5.0,40.0,1.0,5.0,30.0,15.0,5.0,15.0,30.0,30.0,60.0,RR,59.96783644582565,
24.0,0.0,resp1,stim/right_resp_img.png,"[-0.5, 0]",right,stim/gold_coin.png,gold,,,,,training,,,gold,deval,,,,,0.0,0.0,0.0,0.0,1.0,0.0,2.0,0.0,,,,,,,,,0.0,training_resp,,164.7511623535538,34.262685599009274,2.0,,right,gold,0.0,184.0,2.0,right,2023_May_09_1636,habits_v_MRI,5.0,40.0,1.0,5.0,30.0,15.0,5.0,15.0,30.0,30.0,60.0,RR,59.96783644582565,
24.0,0.0,resp1,stim/right_resp_img.png,"[-0.5, 0]",right,stim/gold_coin.png,gold,,,,,training,,,gold,deval,,,,,0.0,0.0,0.0,0.0,1.0,0.0,2.0,0.0,,,,,,,,,0.0,training_resp,,165.18456312367925,34.69597170998168,2.0,,right,gold,0.0,184.0,2.0,right,2023_May_09_1636,habits_v_MRI,5.0,40.0,1.0,5.0,30.0,15.0,5.0,15.0,30.0,30.0,60.0,RR,59.96783644582565,
24.0,0.0,resp1,stim/right_resp_img.png,"[-0.5, 0]",right,stim/gold_coin.png,gold,,,,,training,,,gold,deval,,,,,0.0,0.0,0.0,0.0,1.0,0.0,2.0,0.0,,,,,,,,,0.0,training_resp,,165.68452778754,35.19600733935658,2.0,,right,gold,0.0,184.0,2.0,right,2023_May_09_1636,habits_v_MRI,5.0,40.0,1.0,5.0,30.0,15.0,5.0,15.0,30.0,30.0,60.0,RR,59.96783644582565,
24.0,0.0,resp1,stim/right_resp_img.png,"[-0.5, 0]",right,stim/gold_coin.png,gold,,,,,training,,,gold,deval,,,,,0.0,0.0,0.0,0.0,1.0,0.0,2.0,0.0,,,,,,,,,0.0,training_resp,,166.03458571828378,35.54604708883562,2.0,,left,,,184.0,2.0,right,2023_May_09_1636,habits_v_MRI,5.0,40.0,1.0,5.0,30.0,15.0,5.0,15.0,30.0,30.0,60.0,RR,59.96783644582565,
24.0,0.0,resp1,stim/right_resp_img.png,"[-0.5, 0]",right,stim/gold_coin.png,gold,,,,,training,,,gold,deval,,,,,0.0,0.0,0.0,0.0,1.0,0.0,2.0,0.0,,,,,,,,,0.0,training_resp,,166.1846120957489,35.69604179575981,2.0,,right,gold,0.0,184.0,2.0,right,2023_May_09_1636,habits_v_MRI,5.0,40.0,1.0,5.0,30.0,15.0,5.0,15.0,30.0,30.0,60.0,RR,59.96783644582565,
24.0,0.0,resp1,stim/right_resp_img.png,"[-0.5, 0]",right,stim/gold_coin.png,gold,,,,,training,,,gold,deval,,,,,0.0,0.0,0.0,0.0,1.0,0.0,2.0,0.0,,,,,,,,,0.0,training_resp,,166.7346405845892,36.24599667986331,2.0,,right,gold,0.0,184.0,2.0,right,2023_May_09_1636,habits_v_MRI,5.0,40.0,1.0,5.0,30.0,15.0,5.0,15.0,30.0,30.0,60.0,RR,59.96783644582565,
24.0,0.0,resp1,stim/right_resp_img.png,"[-0.5, 0]",right,stim/gold_coin.png,gold,,,,,training,,,gold,deval,,,,,0.0,0.0,0.0,0.0,1.0,0.0,2.0,0.0,,,,,,,,,0.0,training_resp,,167.6344402096438,37.14590158021019,2.0,,right,gold,0.0,184.0,2.0,right,2023_May_09_1636,habits_v_MRI,5.0,40.0,1.0,5.0,30.0,15.0,5.0,15.0,30.0,30.0,60.0,RR,59.96783644582565,
24.0,0.0,resp1,stim/right_resp_img.png,"[-0.5, 0]",right,stim/gold_coin.png,gold,,,,,training,,,gold,deval,,,,,0.0,0.0,0.0,0.0,1.0,0.0,2.0,0.0,,,,,,,,,0.0,training_resp,,168.16760764399078,37.67912121232075,2.0,,right,gold,0.0,184.0,2.0,right,2023_May_09_1636,habits_v_MRI,5.0,40.0,1.0,5.0,30.0,15.0,5.0,15.0,30.0,30.0,60.0,RR,59.96783644582565,
24.0,0.0,resp1,stim/right_resp_img.png,"[-0.5, 0]",right,stim/gold_coin.png,gold,,,,,training,,,gold,deval,,,,,0.0,0.0,0.0,0.0,1.0,0.0,2.0,0.0,,,,,,,,,0.0,training_resp,,168.66767113172682,38.17915390923736,2.0,,right,gold,0.0,184.0,2.0,right,2023_May_09_1636,habits_v_MRI,5.0,40.0,1.0,5.0,30.0,15.0,5.0,15.0,30.0,30.0,60.0,RR,59.96783644582565,
24.0,0.0,resp1,stim/right_resp_img.png,"[-0.5, 0]",right,stim/gold_coin.png,gold,,,,,training,,,gold,deval,,,,,0.0,0.0,0.0,0.0,1.0,0.0,2.0,0.0,,,,,,,,,0.0,training_resp,,169.21762865505298,38.72911201906391,2.0,11.0,right,gold,1.0,184.0,2.0,right,2023_May_09_1636,habits_v_MRI,5.0,40.0,1.0,5.0,30.0,15.0,5.0,15.0,30.0,30.0,60.0,RR,59.96783644582565,
24.0,0.0,resp1,stim/right_resp_img.png,"[-0.5, 0]",right,stim/gold_coin.png,gold,,,,,training,,,gold,deval,,,,,0.0,0.0,0.0,0.0,1.0,0.0,2.0,0.0,,,,,,,,,0.0,training_resp,,169.68438351055374,39.195778900771984,2.0,,right,gold,0.0,184.0,2.0,right,2023_May_09_1636,habits_v_MRI,5.0,40.0,1.0,5.0,30.0,15.0,5.0,15.0,30.0,30.0,60.0,RR,59.96783644582565,
24.0,0.0,resp1,stim/right_resp_img.png,"[-0.5, 0]",right,stim/gold_coin.png,gold,,,,,training,,,gold,deval,,,,,0.0,0.0,0.0,0.0,1.0,0.0,2.0,0.0,,,,,,,,,0.0,training_resp,,170.13422364753205,39.64571375619562,2.0,,right,gold,0.0,184.0,2.0,right,2023_May_09_1636,habits_v_MRI,5.0,40.0,1.0,5.0,30.0,15.0,5.0,15.0,30.0,30.0,60.0,RR,59.96783644582565,
24.0,0.0,resp1,stim/right_resp_img.png,"[-0.5, 0]",right,stim/gold_coin.png,gold,,,,,training,,,gold,deval,,,,,0.0,0.0,0.0,0.0,1.0,0.0,2.0,0.0,,,,,,,,,0.0,training_resp,,170.61754103316343,40.12902322418813,2.0,,right,gold,0.0,184.0,2.0,right,2023_May_09_1636,habits_v_MRI,5.0,40.0,1.0,5.0,30.0,15.0,5.0,15.0,30.0,30.0,60.0,RR,59.96783644582565,
24.0,0.0,resp1,stim/right_resp_img.png,"[-0.5, 0]",right,stim/gold_coin.png,gold,,,,,training,,,gold,deval,,,,,0.0,0.0,0.0,0.0,1.0,0.0,2.0,0.0,,,,,,,,,0.0,training_resp,,171.15072723524645,40.66228713643795,2.0,,right,gold,0.0,184.0,2.0,right,2023_May_09_1636,habits_v_MRI,5.0,40.0,1.0,5.0,30.0,15.0,5.0,15.0,30.0,30.0,60.0,RR,59.96783644582565,
24.0,0.0,resp1,stim/right_resp_img.png,"[-0.5, 0]",right,stim/gold_coin.png,gold,,,,,training,,,gold,deval,,,,,0.0,0.0,0.0,0.0,1.0,0.0,2.0,0.0,,,,,,,,,0.0,training_resp,,171.63406368187862,41.14559425847256,2.0,,right,gold,0.0,184.0,2.0,right,2023_May_09_1636,habits_v_MRI,5.0,40.0,1.0,5.0,30.0,15.0,5.0,15.0,30.0,30.0,60.0,RR,59.96783644582565,
24.0,0.0,resp1,stim/right_resp_img.png,"[-0.5, 0]",right,stim/gold_coin.png,gold,,,,,training,,,gold,deval,,,,,0.0,0.0,0.0,0.0,1.0,0.0,2.0,0.0,,,,,,,,,0.0,training_resp,,172.11759865599743,41.62894331467396,2.0,,right,gold,0.0,184.0,2.0,right,2023_May_09_1636,habits_v_MRI,5.0,40.0,1.0,5.0,30.0,15.0,5.0,15.0,30.0,30.0,60.0,RR,59.96783644582565,
24.0,0.0,resp1,stim/right_resp_img.png,"[-0.5, 0]",right,stim/gold_coin.png,gold,,,,,training,,,gold,deval,,,,,0.0,0.0,0.0,0.0,1.0,0.0,2.0,0.0,,,,,,,,,0.0,training_resp,,172.56753849658708,42.07890866766684,2.0,,right,gold,0.0,184.0,2.0,right,2023_May_09_1636,habits_v_MRI,5.0,40.0,1.0,5.0,30.0,15.0,5.0,15.0,30.0,30.0,60.0,RR,59.96783644582565,
24.0,0.0,resp1,stim/right_resp_img.png,"[-0.5, 0]",right,stim/gold_coin.png,gold,,,,,training,,,gold,deval,,,,,0.0,0.0,0.0,0.0,1.0,0.0,2.0,0.0,,,,,,,,,0.0,training_resp,,173.00068678197567,42.512229381653015,2.0,,right,gold,0.0,184.0,2.0,right,2023_May_09_1636,habits_v_MRI,5.0,40.0,1.0,5.0,30.0,15.0,5.0,15.0,30.0,30.0,60.0,RR,59.96783644582565,
24.0,0.0,resp1,stim/right_resp_img.png,"[-0.5, 0]",right,stim/gold_coin.png,gold,,,,,training,,,gold,deval,,,,,0.0,0.0,0.0,0.0,1.0,0.0,2.0,0.0,,,,,,,,,0.0,training_resp,,173.483949623871,42.99546612467384,2.0,,right,gold,0.0,184.0,2.0,right,2023_May_09_1636,habits_v_MRI,5.0,40.0,1.0,5.0,30.0,15.0,5.0,15.0,30.0,30.0,60.0,RR,59.96783644582565,
24.0,0.0,resp1,stim/right_resp_img.png,"[-0.5, 0]",right,stim/gold_coin.png,gold,,,,,training,,,gold,deval,,,,,0.0,0.0,0.0,0.0,1.0,0.0,2.0,0.0,,,,,,,,,0.0,training_resp,,173.95065462755156,43.462160864743055,2.0,,right,gold,0.0,184.0,2.0,right,2023_May_09_1636,habits_v_MRI,5.0,40.0,1.0,5.0,30.0,15.0,5.0,15.0,30.0,30.0,60.0,RR,59.96783644582565,
24.0,0.0,resp1,stim/right_resp_img.png,"[-0.5, 0]",right,stim/gold_coin.png,gold,,,,,training,,,gold,deval,,,,,0.0,0.0,0.0,0.0,1.0,0.0,2.0,0.0,,,,,,,,,0.0,training_resp,,174.4173725340661,43.92878141360416,2.0,9.0,right,gold,1.0,184.0,2.0,right,2023_May_09_1636,habits_v_MRI,5.0,40.0,1.0,5.0,30.0,15.0,5.0,15.0,30.0,30.0,60.0,RR,59.96783644582565,
24.0,0.0,resp1,stim/right_resp_img.png,"[-0.5, 0]",right,stim/gold_coin.png,gold,,,,,training,,,gold,deval,,,,,0.0,0.0,0.0,0.0,1.0,0.0,2.0,0.0,,,,,,,,,0.0,training_resp,,174.90059021608613,44.4120439622493,2.0,,right,gold,0.0,184.0,2.0,right,2023_May_09_1636,habits_v_MRI,5.0,40.0,1.0,5.0,30.0,15.0,5.0,15.0,30.0,30.0,60.0,RR,59.96783644582565,
24.0,0.0,resp1,stim/right_resp_img.png,"[-0.5, 0]",right,stim/gold_coin.png,gold,,,,,training,,,gold,deval,,,,,0.0,0.0,0.0,0.0,1.0,0.0,2.0,0.0,,,,,,,,,0.0,ITI_start,20.0,175.16785660978348,44.67868486237421,,,,,,184.0,2.0,right,2023_May_09_1636,habits_v_MRI,5.0,40.0,1.0,5.0,30.0,15.0,5.0,15.0,30.0,30.0,60.0,RR,59.96783644582565,
24.0,1.0,resp2,stim/left_resp_img.png,"[0.5, 0]",left,stim/silver_coin.png,gold,,,,,training,,,silver,val,,,,,0.0,0.0,0.0,0.0,1.0,1.0,3.0,1.0,,,,,,,,,0.0,training_period_start,45.0,195.2042320079636,0.0,3.0,16.0,,,,184.0,2.0,right,2023_May_09_1636,habits_v_MRI,5.0,40.0,1.0,5.0,30.0,15.0,5.0,15.0,30.0,30.0,60.0,RR,59.96783644582565,
24.0,1.0,resp2,stim/left_resp_img.png,"[0.5, 0]",left,stim/silver_coin.png,gold,,,,,training,,,silver,val,,,,,0.0,0.0,0.0,0.0,1.0,1.0,3.0,1.0,,,,,,,,,0.0,training_resp,,195.88258638218397,0.6982062439783476,3.0,,left,silver,0.0,184.0,2.0,right,2023_May_09_1636,habits_v_MRI,5.0,40.0,1.0,5.0,30.0,15.0,5.0,15.0,30.0,30.0,60.0,RR,59.96783644582565,
24.0,1.0,resp2,stim/left_resp_img.png,"[0.5, 0]",left,stim/silver_coin.png,gold,,,,,training,,,silver,val,,,,,0.0,0.0,0.0,0.0,1.0,1.0,3.0,1.0,,,,,,,,,0.0,training_resp,,196.29934339303875,1.1148169251100626,3.0,,left,silver,0.0,184.0,2.0,right,2023_May_09_1636,habits_v_MRI,5.0,40.0,1.0,5.0,30.0,15.0,5.0,15.0,30.0,30.0,60.0,RR,59.96783644582565,
24.0,1.0,resp2,stim/left_resp_img.png,"[0.5, 0]",left,stim/silver_coin.png,gold,,,,,training,,,silver,val,,,,,0.0,0.0,0.0,0.0,1.0,1.0,3.0,1.0,,,,,,,,,0.0,training_resp,,197.31582733328105,2.131446608575061,3.0,,left,silver,0.0,184.0,2.0,right,2023_May_09_1636,habits_v_MRI,5.0,40.0,1.0,5.0,30.0,15.0,5.0,15.0,30.0,30.0,60.0,RR,59.96783644582565,
24.0,1.0,resp2,stim/left_resp_img.png,"[0.5, 0]",left,stim/silver_coin.png,gold,,,,,training,,,silver,val,,,,,0.0,0.0,0.0,0.0,1.0,1.0,3.0,1.0,,,,,,,,,0.0,training_resp,,197.832489420427,2.64810576326272,3.0,,left,silver,0.0,184.0,2.0,right,2023_May_09_1636,habits_v_MRI,5.0,40.0,1.0,5.0,30.0,15.0,5.0,15.0,30.0,30.0,60.0,RR,59.96783644582565,
24.0,1.0,resp2,stim/left_resp_img.png,"[0.5, 0]",left,stim/silver_coin.png,gold,,,,,training,,,silver,val,,,,,0.0,0.0,0.0,0.0,1.0,1.0,3.0,1.0,,,,,,,,,0.0,training_resp,,198.3324564302602,3.1480830366926966,3.0,,left,silver,0.0,184.0,2.0,right,2023_May_09_1636,habits_v_MRI,5.0,40.0,1.0,5.0,30.0,15.0,5.0,15.0,30.0,30.0,60.0,RR,59.96783644582565,
24.0,1.0,resp2,stim/left_resp_img.png,"[0.5, 0]",left,stim/silver_coin.png,gold,,,,,training,,,silver,val,,,,,0.0,0.0,0.0,0.0,1.0,1.0,3.0,1.0,,,,,,,,,0.0,training_resp,,198.815672059558,3.631306876894087,3.0,,left,silver,0.0,184.0,2.0,right,2023_May_09_1636,habits_v_MRI,5.0,40.0,1.0,5.0,30.0,15.0,5.0,15.0,30.0,30.0,60.0,RR,59.96783644582565,
24.0,1.0,resp2,stim/left_resp_img.png,"[0.5, 0]",left,stim/silver_coin.png,gold,,,,,training,,,silver,val,,,,,0.0,0.0,0.0,0.0,1.0,1.0,3.0,1.0,,,,,,,,,0.0,training_resp,,199.33233678591205,4.147988611512119,3.0,,left,silver,0.0,184.0,2.0,right,2023_May_09_1636,habits_v_MRI,5.0,40.0,1.0,5.0,30.0,15.0,5.0,15.0,30.0,30.0,60.0,RR,59.96783644582565,
24.0,1.0,resp2,stim/left_resp_img.png,"[0.5, 0]",left,stim/silver_coin.png,gold,,,,,training,,,silver,val,,,,,0.0,0.0,0.0,0.0,1.0,1.0,3.0,1.0,,,,,,,,,0.0,training_resp,,199.86556404242583,4.681210882830783,3.0,,left,silver,0.0,184.0,2.0,right,2023_May_09_1636,habits_v_MRI,5.0,40.0,1.0,5.0,30.0,15.0,5.0,15.0,30.0,30.0,60.0,RR,59.96783644582565,
24.0,1.0,resp2,stim/left_resp_img.png,"[0.5, 0]",left,stim/silver_coin.png,gold,,,,,training,,,silver,val,,,,,0.0,0.0,0.0,0.0,1.0,1.0,3.0,1.0,,,,,,,,,0.0,training_resp,,200.39931386317767,5.214973606402054,3.0,,left,silver,0.0,184.0,2.0,right,2023_May_09_1636,habits_v_MRI,5.0,40.0,1.0,5.0,30.0,15.0,5.0,15.0,30.0,30.0,60.0,RR,59.96783644582565,
24.0,1.0,resp2,stim/left_resp_img.png,"[0.5, 0]",left,stim/silver_coin.png,gold,,,,,training,,,silver,val,,,,,0.0,0.0,0.0,0.0,1.0,1.0,3.0,1.0,,,,,,,,,0.0,training_resp,,200.94886406790465,5.764548737046425,3.0,,left,silver,0.0,184.0,2.0,right,2023_May_09_1636,habits_v_MRI,5.0,40.0,1.0,5.0,30.0,15.0,5.0,15.0,30.0,30.0,60.0,RR,59.96783644582565,
24.0,1.0,resp2,stim/left_resp_img.png,"[0.5, 0]",left,stim/silver_coin.png,gold,,,,,training,,,silver,val,,,,,0.0,0.0,0.0,0.0,1.0,1.0,3.0,1.0,,,,,,,,,0.0,training_resp,,201.93223878311983,6.747810845830827,3.0,,left,silver,0.0,184.0,2.0,right,2023_May_09_1636,habits_v_MRI,5.0,40.0,1.0,5.0,30.0,15.0,5.0,15.0,30.0,30.0,60.0,RR,59.96783644582565,
24.0,1.0,resp2,stim/left_resp_img.png,"[0.5, 0]",left,stim/silver_coin.png,gold,,,,,training,,,silver,val,,,,,0.0,0.0,0.0,0.0,1.0,1.0,3.0,1.0,,,,,,,,,0.0,training_resp,,202.4654434596887,7.281073878330062,3.0,,left,silver,0.0,184.0,2.0,right,2023_May_09_1636,habits_v_MRI,5.0,40.0,1.0,5.0,30.0,15.0,5.0,15.0,30.0,30.0,60.0,RR,59.96783644582565,
24.0,1.0,resp2,stim/left_resp_img.png,"[0.5, 0]",left,stim/silver_coin.png,gold,,,,,training,,,silver,val,,,,,0.0,0.0,0.0,0.0,1.0,1.0,3.0,1.0,,,,,,,,,0.0,training_resp,,202.9987466668972,7.814387642385554,3.0,,left,silver,0.0,184.0,2.0,right,2023_May_09_1636,habits_v_MRI,5.0,40.0,1.0,5.0,30.0,15.0,5.0,15.0,30.0,30.0,60.0,RR,59.96783644582565,
24.0,1.0,resp2,stim/left_resp_img.png,"[0.5, 0]",left,stim/silver_coin.png,gold,,,,,training,,,silver,val,,,,,0.0,0.0,0.0,0.0,1.0,1.0,3.0,1.0,,,,,,,,,0.0,training_resp,,203.5487206119869,8.364363053711713,3.0,,left,silver,0.0,184.0,2.0,right,2023_May_09_1636,habits_v_MRI,5.0,40.0,1.0,5.0,30.0,15.0,5.0,15.0,30.0,30.0,60.0,RR,59.96783644582565,
24.0,1.0,resp2,stim/left_resp_img.png,"[0.5, 0]",left,stim/silver_coin.png,gold,,,,,training,,,silver,val,,,,,0.0,0.0,0.0,0.0,1.0,1.0,3.0,1.0,,,,,,,,,0.0,training_resp,,203.81536444457012,8.630998088920023,3.0,,right,,,184.0,2.0,right,2023_May_09_1636,habits_v_MRI,5.0,40.0,1.0,5.0,30.0,15.0,5.0,15.0,30.0,30.0,60.0,RR,59.96783644582565,
24.0,1.0,resp2,stim/left_resp_img.png,"[0.5, 0]",left,stim/silver_coin.png,gold,,,,,training,,,silver,val,,,,,0.0,0.0,0.0,0.0,1.0,1.0,3.0,1.0,,,,,,,,,0.0,training_resp,,204.03216292039724,8.847730877663707,3.0,,left,silver,0.0,184.0,2.0,right,2023_May_09_1636,habits_v_MRI,5.0,40.0,1.0,5.0,30.0,15.0,5.0,15.0,30.0,30.0,60.0,RR,59.96783644582565,
24.0,1.0,resp2,stim/left_resp_img.png,"[0.5, 0]",left,stim/silver_coin.png,gold,,,,,training,,,silver,val,,,,,0.0,0.0,0.0,0.0,1.0,1.0,3.0,1.0,,,,,,,,,0.0,training_resp,,204.5820805622789,9.397702770031174,3.0,19.0,left,silver,1.0,184.0,2.0,right,2023_May_09_1636,habits_v_MRI,5.0,40.0,1.0,5.0,30.0,15.0,5.0,15.0,30.0,30.0,60.0,RR,59.96783644582565,
24.0,1.0,resp2,stim/left_resp_img.png,"[0.5, 0]",left,stim/silver_coin.png,gold,,,,,training,,,silver,val,,,,,0.0,0.0,0.0,0.0,1.0,1.0,3.0,1.0,,,,,,,,,0.0,training_resp,,205.0821270417655,9.897648666155874,3.0,,left,silver,0.0,184.0,2.0,right,2023_May_09_1636,habits_v_MRI,5.0,40.0,1.0,5.0,30.0,15.0,5.0,15.0,30.0,30.0,60.0,RR,59.96783644582565,
24.0,1.0,resp2,stim/left_resp_img.png,"[0.5, 0]",left,stim/silver_coin.png,gold,,,,,training,,,silver,val,,,,,0.0,0.0,0.0,0.0,1.0,1.0,3.0,1.0,,,,,,,,,0.0,training_resp,,205.59855306593815,10.414227178218423,3.0,,left,silver,0.0,184.0,2.0,right,2023_May_09_1636,habits_v_MRI,5.0,40.0,1.0,5.0,30.0,15.0,5.0,15.0,30.0,30.0,60.0,RR,59.96783644582565,
24.0,1.0,resp2,stim/left_resp_img.png,"[0.5, 0]",left,stim/silver_coin.png,gold,,,,,training,,,silver,val,,,,,0.0,0.0,0.0,0.0,1.0,1.0,3.0,1.0,,,,,,,,,0.0,training_resp,,206.08243377700276,10.897573888447369,3.0,,left,silver,0.0,184.0,2.0,right,2023_May_09_1636,habits_v_MRI,5.0,40.0,1.0,5.0,30.0,15.0,5.0,15.0,30.0,30.0,60.0,RR,59.96783644582565,
24.0,1.0,resp2,stim/left_resp_img.png,"[0.5, 0]",left,stim/silver_coin.png,gold,,,,,training,,,silver,val,,,,,0.0,0.0,0.0,0.0,1.0,1.0,3.0,1.0,,,,,,,,,0.0,training_resp,,206.5652294781321,11.38091356078803,3.0,,left,silver,0.0,184.0,2.0,right,2023_May_09_1636,habits_v_MRI,5.0,40.0,1.0,5.0,30.0,15.0,5.0,15.0,30.0,30.0,60.0,RR,59.96783644582565,
24.0,1.0,resp2,stim/left_resp_img.png,"[0.5, 0]",left,stim/silver_coin.png,gold,,,,,training,,,silver,val,,,,,0.0,0.0,0.0,0.0,1.0,1.0,3.0,1.0,,,,,,,,,0.0,training_resp,,207.0652090975491,11.88084743382933,3.0,,left,silver,0.0,184.0,2.0,right,2023_May_09_1636,habits_v_MRI,5.0,40.0,1.0,5.0,30.0,15.0,5.0,15.0,30.0,30.0,60.0,RR,59.96783644582565,
24.0,1.0,resp2,stim/left_resp_img.png,"[0.5, 0]",left,stim/silver_coin.png,gold,,,,,training,,,silver,val,,,,,0.0,0.0,0.0,0.0,1.0,1.0,3.0,1.0,,,,,,,,,0.0,training_resp,,207.56522449295156,12.380824707259308,3.0,,left,silver,0.0,184.0,2.0,right,2023_May_09_1636,habits_v_MRI,5.0,40.0,1.0,5.0,30.0,15.0,5.0,15.0,30.0,30.0,60.0,RR,59.96783644582565,
24.0,1.0,resp2,stim/left_resp_img.png,"[0.5, 0]",left,stim/silver_coin.png,gold,,,,,training,,,silver,val,,,,,0.0,0.0,0.0,0.0,1.0,1.0,3.0,1.0,,,,,,,,,0.0,training_resp,,208.04839349615213,12.864053239391067,3.0,,left,silver,0.0,184.0,2.0,right,2023_May_09_1636,habits_v_MRI,5.0,40.0,1.0,5.0,30.0,15.0,5.0,15.0,30.0,30.0,60.0,RR,59.96783644582565,
24.0,1.0,resp2,stim/left_resp_img.png,"[0.5, 0]",left,stim/silver_coin.png,gold,,,,,training,,,silver,val,,,,,0.0,0.0,0.0,0.0,1.0,1.0,3.0,1.0,,,,,,,,,0.0,training_resp,,208.98173635020797,13.79731896976591,3.0,,left,silver,0.0,184.0,2.0,right,2023_May_09_1636,habits_v_MRI,5.0,40.0,1.0,5.0,30.0,15.0,5.0,15.0,30.0,30.0,60.0,RR,59.96783644582565,
24.0,1.0,resp2,stim/left_resp_img.png,"[0.5, 0]",left,stim/silver_coin.png,gold,,,,,training,,,silver,val,,,,,0.0,0.0,0.0,0.0,1.0,1.0,3.0,1.0,,,,,,,,,0.0,training_resp,,209.5318196760345,14.3473075771617,3.0,,left,silver,0.0,184.0,2.0,right,2023_May_09_1636,habits_v_MRI,5.0,40.0,1.0,5.0,30.0,15.0,5.0,15.0,30.0,30.0,60.0,RR,59.96783644582565,
24.0,1.0,resp2,stim/left_resp_img.png,"[0.5, 0]",left,stim/silver_coin.png,gold,,,,,training,,,silver,val,,,,,0.0,0.0,0.0,0.0,1.0,1.0,3.0,1.0,,,,,,,,,0.0,training_resp,,209.9983314306592,14.814016979536971,3.0,,left,silver,0.0,184.0,2.0,right,2023_May_09_1636,habits_v_MRI,5.0,40.0,1.0,5.0,30.0,15.0,5.0,15.0,30.0,30.0,60.0,RR,59.96783644582565,
24.0,1.0,resp2,stim/left_resp_img.png,"[0.5, 0]",left,stim/silver_coin.png,gold,,,,,training,,,silver,val,,,,,0.0,0.0,0.0,0.0,1.0,1.0,3.0,1.0,,,,,,,,,0.0,training_resp,,210.4816394324298,15.297295070224209,3.0,,left,silver,0.0,184.0,2.0,right,2023_May_09_1636,habits_v_MRI,5.0,40.0,1.0,5.0,30.0,15.0,5.0,15.0,30.0,30.0,60.0,RR,59.96783644582565,
24.0,1.0,resp2,stim/left_resp_img.png,"[0.5, 0]",left,stim/silver_coin.png,gold,,,,,training,,,silver,val,,,,,0.0,0.0,0.0,0.0,1.0,1.0,3.0,1.0,,,,,,,,,0.0,training_resp,,210.99832703196444,15.813920208369382,3.0,,left,silver,0.0,184.0,2.0,right,2023_May_09_1636,habits_v_MRI,5.0,40.0,1.0,5.0,30.0,15.0,5.0,15.0,30.0,30.0,60.0,RR,59.96783644582565,
24.0,1.0,resp2,stim/left_resp_img.png,"[0.5, 0]",left,stim/silver_coin.png,gold,,,,,training,,,silver,val,,,,,0.0,0.0,0.0,0.0,1.0,1.0,3.0,1.0,,,,,,,,,0.0,training_resp,,211.48175262536097,16.29721560057078,3.0,,left,silver,0.0,184.0,2.0,right,2023_May_09_1636,habits_v_MRI,5.0,40.0,1.0,5.0,30.0,15.0,5.0,15.0,30.0,30.0,60.0,RR,59.96783644582565,
24.0,1.0,resp2,stim/left_resp_img.png,"[0.5, 0]",left,stim/silver_coin.png,gold,,,,,training,,,silver,val,,,,,0.0,0.0,0.0,0.0,1.0,1.0,3.0,1.0,,,,,,,,,0.0,training_resp,,211.9482142349152,16.763851984709618,3.0,,left,silver,0.0,184.0,2.0,right,2023_May_09_1636,habits_v_MRI,5.0,40.0,1.0,5.0,30.0,15.0,5.0,15.0,30.0,30.0,60.0,RR,59.96783644582565,
24.0,1.0,resp2,stim/left_resp_img.png,"[0.5, 0]",left,stim/silver_coin.png,gold,,,,,training,,,silver,val,,,,,0.0,0.0,0.0,0.0,1.0,1.0,3.0,1.0,,,,,,,,,0.0,training_resp,,212.44821232881804,17.263826325695845,3.0,,left,silver,0.0,184.0,2.0,right,2023_May_09_1636,habits_v_MRI,5.0,40.0,1.0,5.0,30.0,15.0,5.0,15.0,30.0,30.0,60.0,RR,59.96783644582565,
24.0,1.0,resp2,stim/left_resp_img.png,"[0.5, 0]",left,stim/silver_coin.png,gold,,,,,training,,,silver,val,,,,,0.0,0.0,0.0,0.0,1.0,1.0,3.0,1.0,,,,,,,,,0.0,training_resp,,212.94814766809577,17.763821487125824,3.0,,left,silver,0.0,184.0,2.0,right,2023_May_09_1636,habits_v_MRI,5.0,40.0,1.0,5.0,30.0,15.0,5.0,15.0,30.0,30.0,60.0,RR,59.96783644582565,
24.0,1.0,resp2,stim/left_resp_img.png,"[0.5, 0]",left,stim/silver_coin.png,gold,,,,,training,,,silver,val,,,,,0.0,0.0,0.0,0.0,1.0,1.0,3.0,1.0,,,,,,,,,0.0,training_resp,,213.41483302430424,18.230454059070325,3.0,,left,silver,0.0,184.0,2.0,right,2023_May_09_1636,habits_v_MRI,5.0,40.0,1.0,5.0,30.0,15.0,5.0,15.0,30.0,30.0,60.0,RR,59.96783644582565,
24.0,1.0,resp2,stim/left_resp_img.png,"[0.5, 0]",left,stim/silver_coin.png,gold,,,,,training,,,silver,val,,,,,0.0,0.0,0.0,0.0,1.0,1.0,3.0,1.0,,,,,,,,,0.0,training_resp,,213.88153128333212,18.6970279818197,3.0,,left,silver,0.0,184.0,2.0,right,2023_May_09_1636,habits_v_MRI,5.0,40.0,1.0,5.0,30.0,15.0,5.0,15.0,30.0,30.0,60.0,RR,59.96783644582565,
24.0,1.0,resp2,stim/left_resp_img.png,"[0.5, 0]",left,stim/silver_coin.png,gold,,,,,training,,,silver,val,,,,,0.0,0.0,0.0,0.0,1.0,1.0,3.0,1.0,,,,,,,,,0.0,training_resp,,214.3814068004285,19.196999976833467,3.0,25.0,left,silver,1.0,184.0,2.0,right,2023_May_09_1636,habits_v_MRI,5.0,40.0,1.0,5.0,30.0,15.0,5.0,15.0,30.0,30.0,60.0,RR,59.96783644582565,
24.0,1.0,resp2,stim/left_resp_img.png,"[0.5, 0]",left,stim/silver_coin.png,gold,,,,,training,,,silver,val,,,,,0.0,0.0,0.0,0.0,1.0,1.0,3.0,1.0,,,,,,,,,0.0,training_resp,,214.8646241892129,19.68030416640977,3.0,,left,silver,0.0,184.0,2.0,right,2023_May_09_1636,habits_v_MRI,5.0,40.0,1.0,5.0,30.0,15.0,5.0,15.0,30.0,30.0,60.0,RR,59.96783644582565,
24.0,1.0,resp2,stim/left_resp_img.png,"[0.5, 0]",left,stim/silver_coin.png,gold,,,,,training,,,silver,val,,,,,0.0,0.0,0.0,0.0,1.0,1.0,3.0,1.0,,,,,,,,,0.0,training_resp,,215.3146514170949,20.13033608623664,3.0,,left,silver,0.0,184.0,2.0,right,2023_May_09_1636,habits_v_MRI,5.0,40.0,1.0,5.0,30.0,15.0,5.0,15.0,30.0,30.0,60.0,RR,59.96783644582565,
24.0,1.0,resp2,stim/left_resp_img.png,"[0.5, 0]",left,stim/silver_coin.png,gold,,,,,training,,,silver,val,,,,,0.0,0.0,0.0,0.0,1.0,1.0,3.0,1.0,,,,,,,,,0.0,training_resp,,215.78133090838676,20.596939040333385,3.0,,left,silver,0.0,184.0,2.0,right,2023_May_09_1636,habits_v_MRI,5.0,40.0,1.0,5.0,30.0,15.0,5.0,15.0,30.0,30.0,60.0,RR,59.96783644582565,
24.0,1.0,resp2,stim/left_resp_img.png,"[0.5, 0]",left,stim/silver_coin.png,gold,,,,,training,,,silver,val,,,,,0.0,0.0,0.0,0.0,1.0,1.0,3.0,1.0,,,,,,,,,0.0,training_resp,,216.1815884369571,20.996908894652734,3.0,,left,silver,0.0,184.0,2.0,right,2023_May_09_1636,habits_v_MRI,5.0,40.0,1.0,5.0,30.0,15.0,5.0,15.0,30.0,30.0,60.0,RR,59.96783644582565,
24.0,1.0,resp2,stim/left_resp_img.png,"[0.5, 0]",left,stim/silver_coin.png,gold,,,,,training,,,silver,val,,,,,0.0,0.0,0.0,0.0,1.0,1.0,3.0,1.0,,,,,,,,,0.0,training_resp,,216.6480007812061,21.463576362861204,3.0,,left,silver,0.0,184.0,2.0,right,2023_May_09_1636,habits_v_MRI,5.0,40.0,1.0,5.0,30.0,15.0,5.0,15.0,30.0,30.0,60.0,RR,59.96783644582565,
24.0,1.0,resp2,stim/left_resp_img.png,"[0.5, 0]",left,stim/silver_coin.png,gold,,,,,training,,,silver,val,,,,,0.0,0.0,0.0,0.0,1.0,1.0,3.0,1.0,,,,,,,,,0.0,training_resp,,217.56455061380984,22.38015258758969,3.0,,left,silver,0.0,184.0,2.0,right,2023_May_09_1636,habits_v_MRI,5.0,40.0,1.0,5.0,30.0,15.0,5.0,15.0,30.0,30.0,60.0,RR,59.96783644582565,
24.0,1.0,resp2,stim/left_resp_img.png,"[0.5, 0]",left,stim/silver_coin.png,gold,,,,,training,,,silver,val,,,,,0.0,0.0,0.0,0.0,1.0,1.0,3.0,1.0,,,,,,,,,0.0,training_resp,,218.0479782599141,22.863545044194325,3.0,,left,silver,0.0,184.0,2.0,right,2023_May_09_1636,habits_v_MRI,5.0,40.0,1.0,5.0,30.0,15.0,5.0,15.0,30.0,30.0,60.0,RR,59.96783644582565,
24.0,1.0,resp2,stim/left_resp_img.png,"[0.5, 0]",left,stim/silver_coin.png,gold,,,,,training,,,silver,val,,,,,0.0,0.0,0.0,0.0,1.0,1.0,3.0,1.0,,,,,,,,,0.0,training_resp,,218.5479133059416,23.36346865362429,3.0,,left,silver,0.0,184.0,2.0,right,2023_May_09_1636,habits_v_MRI,5.0,40.0,1.0,5.0,30.0,15.0,5.0,15.0,30.0,30.0,60.0,RR,59.96783644582565,
24.0,1.0,resp2,stim/left_resp_img.png,"[0.5, 0]",left,stim/silver_coin.png,gold,,,,,training,,,silver,val,,,,,0.0,0.0,0.0,0.0,1.0,1.0,3.0,1.0,,,,,,,,,0.0,training_resp,,219.01436817085775,23.83003671147162,3.0,,left,silver,0.0,184.0,2.0,right,2023_May_09_1636,habits_v_MRI,5.0,40.0,1.0,5.0,30.0,15.0,5.0,15.0,30.0,30.0,60.0,RR,59.96783644582565,
24.0,1.0,resp2,stim/left_resp_img.png,"[0.5, 0]",left,stim/silver_coin.png,gold,,,,,training,,,silver,val,,,,,0.0,0.0,0.0,0.0,1.0,1.0,3.0,1.0,,,,,,,,,0.0,training_resp,,219.48112713178853,24.29670535265177,3.0,,left,silver,0.0,184.0,2.0,right,2023_May_09_1636,habits_v_MRI,5.0,40.0,1.0,5.0,30.0,15.0,5.0,15.0,30.0,30.0,60.0,RR,59.96783644582565,
24.0,1.0,resp2,stim/left_resp_img.png,"[0.5, 0]",left,stim/silver_coin.png,gold,,,,,training,,,silver,val,,,,,0.0,0.0,0.0,0.0,1.0,1.0,3.0,1.0,,,,,,,,,0.0,training_resp,,219.94764592430147,24.76328338084568,3.0,,left,silver,0.0,184.0,2.0,right,2023_May_09_1636,habits_v_MRI,5.0,40.0,1.0,5.0,30.0,15.0,5.0,15.0,30.0,30.0,60.0,RR,59.96783644582565,
24.0,1.0,resp2,stim/left_resp_img.png,"[0.5, 0]",left,stim/silver_coin.png,gold,,,,,training,,,silver,val,,,,,0.0,0.0,0.0,0.0,1.0,1.0,3.0,1.0,,,,,,,,,0.0,training_resp,,220.46430654522555,25.279994440061277,3.0,,left,silver,0.0,184.0,2.0,right,2023_May_09_1636,habits_v_MRI,5.0,40.0,1.0,5.0,30.0,15.0,5.0,15.0,30.0,30.0,60.0,RR,59.96783644582565,
24.0,1.0,resp2,stim/left_resp_img.png,"[0.5, 0]",left,stim/silver_coin.png,gold,,,,,training,,,silver,val,,,,,0.0,0.0,0.0,0.0,1.0,1.0,3.0,1.0,,,,,,,,,0.0,training_resp,,221.43103662143403,26.246617188269735,3.0,,left,silver,0.0,184.0,2.0,right,2023_May_09_1636,habits_v_MRI,5.0,40.0,1.0,5.0,30.0,15.0,5.0,15.0,30.0,30.0,60.0,RR,59.96783644582565,
24.0,1.0,resp2,stim/left_resp_img.png,"[0.5, 0]",left,stim/silver_coin.png,gold,,,,,training,,,silver,val,,,,,0.0,0.0,0.0,0.0,1.0,1.0,3.0,1.0,,,,,,,,,0.0,training_resp,,222.03104565340615,26.84661712961679,3.0,,left,silver,0.0,184.0,2.0,right,2023_May_09_1636,habits_v_MRI,5.0,40.0,1.0,5.0,30.0,15.0,5.0,15.0,30.0,30.0,60.0,RR,59.96783644582565,
24.0,1.0,resp2,stim/left_resp_img.png,"[0.5, 0]",left,stim/silver_coin.png,gold,,,,,training,,,silver,val,,,,,0.0,0.0,0.0,0.0,1.0,1.0,3.0,1.0,,,,,,,,,0.0,training_resp,,222.6142077066761,27.4298425240122,3.0,,left,silver,0.0,184.0,2.0,right,2023_May_09_1636,habits_v_MRI,5.0,40.0,1.0,5.0,30.0,15.0,5.0,15.0,30.0,30.0,60.0,RR,59.96783644582565,
24.0,1.0,resp2,stim/left_resp_img.png,"[0.5, 0]",left,stim/silver_coin.png,gold,,,,,training,,,silver,val,,,,,0.0,0.0,0.0,0.0,1.0,1.0,3.0,1.0,,,,,,,,,0.0,training_resp,,223.11419407074573,27.9298365124705,3.0,,left,silver,0.0,184.0,2.0,right,2023_May_09_1636,habits_v_MRI,5.0,40.0,1.0,5.0,30.0,15.0,5.0,15.0,30.0,30.0,60.0,RR,59.96783644582565,
24.0,1.0,resp2,stim/left_resp_img.png,"[0.5, 0]",left,stim/silver_coin.png,gold,,,,,training,,,silver,val,,,,,0.0,0.0,0.0,0.0,1.0,1.0,3.0,1.0,,,,,,,,,0.0,training_resp,,223.61421034589875,28.429822876525577,3.0,,left,silver,0.0,184.0,2.0,right,2023_May_09_1636,habits_v_MRI,5.0,40.0,1.0,5.0,30.0,15.0,5.0,15.0,30.0,30.0,60.0,RR,59.96783644582565,
24.0,1.0,resp2,stim/left_resp_img.png,"[0.5, 0]",left,stim/silver_coin.png,gold,,,,,training,,,silver,val,,,,,0.0,0.0,0.0,0.0,1.0,1.0,3.0,1.0,,,,,,,,,0.0,training_resp,,224.0973620475852,28.91303322740714,3.0,,left,silver,0.0,184.0,2.0,right,2023_May_09_1636,habits_v_MRI,5.0,40.0,1.0,5.0,30.0,15.0,5.0,15.0,30.0,30.0,60.0,RR,59.96783644582565,
24.0,1.0,resp2,stim/left_resp_img.png,"[0.5, 0]",left,stim/silver_coin.png,gold,,,,,training,,,silver,val,,,,,0.0,0.0,0.0,0.0,1.0,1.0,3.0,1.0,,,,,,,,,0.0,training_resp,,224.5973410805018,29.41301607251808,3.0,,left,silver,0.0,184.0,2.0,right,2023_May_09_1636,habits_v_MRI,5.0,40.0,1.0,5.0,30.0,15.0,5.0,15.0,30.0,30.0,60.0,RR,59.96783644582565,
24.0,1.0,resp2,stim/left_resp_img.png,"[0.5, 0]",left,stim/silver_coin.png,gold,,,,,training,,,silver,val,,,,,0.0,0.0,0.0,0.0,1.0,1.0,3.0,1.0,,,,,,,,,0.0,training_resp,,225.1140999388008,29.929738861566875,3.0,,left,silver,0.0,184.0,2.0,right,2023_May_09_1636,habits_v_MRI,5.0,40.0,1.0,5.0,30.0,15.0,5.0,15.0,30.0,30.0,60.0,RR,59.96783644582565,
24.0,1.0,resp2,stim/left_resp_img.png,"[0.5, 0]",left,stim/silver_coin.png,gold,,,,,training,,,silver,val,,,,,0.0,0.0,0.0,0.0,1.0,1.0,3.0,1.0,,,,,,,,,0.0,training_resp,,225.63071803905768,30.44635080365697,3.0,,left,silver,0.0,184.0,2.0,right,2023_May_09_1636,habits_v_MRI,5.0,40.0,1.0,5.0,30.0,15.0,5.0,15.0,30.0,30.0,60.0,RR,59.96783644582565,
24.0,1.0,resp2,stim/left_resp_img.png,"[0.5, 0]",left,stim/silver_coin.png,gold,,,,,training,,,silver,val,,,,,0.0,0.0,0.0,0.0,1.0,1.0,3.0,1.0,,,,,,,,,0.0,training_resp,,226.1140665087587,30.9296652568446,3.0,,left,silver,0.0,184.0,2.0,right,2023_May_09_1636,habits_v_MRI,5.0,40.0,1.0,5.0,30.0,15.0,5.0,15.0,30.0,30.0,60.0,RR,59.96783644582565,
24.0,1.0,resp2,stim/left_resp_img.png,"[0.5, 0]",left,stim/silver_coin.png,gold,,,,,training,,,silver,val,,,,,0.0,0.0,0.0,0.0,1.0,1.0,3.0,1.0,,,,,,,,,0.0,training_resp,,226.6305898905848,31.446257258212427,3.0,,left,silver,0.0,184.0,2.0,right,2023_May_09_1636,habits_v_MRI,5.0,40.0,1.0,5.0,30.0,15.0,5.0,15.0,30.0,30.0,60.0,RR,59.96783644582565,
24.0,1.0,resp2,stim/left_resp_img.png,"[0.5, 0]",left,stim/silver_coin.png,gold,,,,,training,,,silver,val,,,,,0.0,0.0,0.0,0.0,1.0,1.0,3.0,1.0,,,,,,,,,0.0,training_resp,,227.68049829521624,32.49615363976045,3.0,,left,silver,0.0,184.0,2.0,right,2023_May_09_1636,habits_v_MRI,5.0,40.0,1.0,5.0,30.0,15.0,5.0,15.0,30.0,30.0,60.0,RR,59.96783644582565,
24.0,1.0,resp2,stim/left_resp_img.png,"[0.5, 0]",left,stim/silver_coin.png,gold,,,,,training,,,silver,val,,,,,0.0,0.0,0.0,0.0,1.0,1.0,3.0,1.0,,,,,,,,,0.0,training_resp,,228.81391111774428,33.629506346871494,3.0,16.0,left,silver,1.0,184.0,2.0,right,2023_May_09_1636,habits_v_MRI,5.0,40.0,1.0,5.0,30.0,15.0,5.0,15.0,30.0,30.0,60.0,RR,59.96783644582565,
24.0,1.0,resp2,stim/left_resp_img.png,"[0.5, 0]",left,stim/silver_coin.png,gold,,,,,training,,,silver,val,,,,,0.0,0.0,0.0,0.0,1.0,1.0,3.0,1.0,,,,,,,,,0.0,training_resp,,229.34713221609127,34.16276468745491,3.0,,left,silver,0.0,184.0,2.0,right,2023_May_09_1636,habits_v_MRI,5.0,40.0,1.0,5.0,30.0,15.0,5.0,15.0,30.0,30.0,60.0,RR,59.96783644582565,
24.0,1.0,resp2,stim/left_resp_img.png,"[0.5, 0]",left,stim/silver_coin.png,gold,,,,,training,,,silver,val,,,,,0.0,0.0,0.0,0.0,1.0,1.0,3.0,1.0,,,,,,,,,0.0,training_resp,,229.5638324545289,34.37944850411441,3.0,,right,,,184.0,2.0,right,2023_May_09_1636,habits_v_MRI,5.0,40.0,1.0,5.0,30.0,15.0,5.0,15.0,30.0,30.0,60.0,RR,59.96783644582565,
24.0,1.0,resp2,stim/left_resp_img.png,"[0.5, 0]",left,stim/silver_coin.png,gold,,,,,training,,,silver,val,,,,,0.0,0.0,0.0,0.0,1.0,1.0,3.0,1.0,,,,,,,,,0.0,training_resp,,229.83040326887567,34.64606770404498,3.0,,left,silver,0.0,184.0,2.0,right,2023_May_09_1636,habits_v_MRI,5.0,40.0,1.0,5.0,30.0,15.0,5.0,15.0,30.0,30.0,60.0,RR,59.96783644582565,
24.0,1.0,resp2,stim/left_resp_img.png,"[0.5, 0]",left,stim/silver_coin.png,gold,,,,,training,,,silver,val,,,,,0.0,0.0,0.0,0.0,1.0,1.0,3.0,1.0,,,,,,,,,0.0,training_resp,,230.2803932545212,35.09602220694069,3.0,,left,silver,0.0,184.0,2.0,right,2023_May_09_1636,habits_v_MRI,5.0,40.0,1.0,5.0,30.0,15.0,5.0,15.0,30.0,30.0,60.0,RR,59.96783644582565,
24.0,1.0,resp2,stim/left_resp_img.png,"[0.5, 0]",left,stim/silver_coin.png,gold,,,,,training,,,silver,val,,,,,0.0,0.0,0.0,0.0,1.0,1.0,3.0,1.0,,,,,,,,,0.0,training_resp,,230.8137454337993,35.62934124941239,3.0,,left,silver,0.0,184.0,2.0,right,2023_May_09_1636,habits_v_MRI,5.0,40.0,1.0,5.0,30.0,15.0,5.0,15.0,30.0,30.0,60.0,RR,59.96783644582565,
24.0,1.0,resp2,stim/left_resp_img.png,"[0.5, 0]",left,stim/silver_coin.png,gold,,,,,training,,,silver,val,,,,,0.0,0.0,0.0,0.0,1.0,1.0,3.0,1.0,,,,,,,,,0.0,training_resp,,231.0136309505906,35.82927691125951,3.0,,right,,,184.0,2.0,right,2023_May_09_1636,habits_v_MRI,5.0,40.0,1.0,5.0,30.0,15.0,5.0,15.0,30.0,30.0,60.0,RR,59.96783644582565,
24.0,1.0,resp2,stim/left_resp_img.png,"[0.5, 0]",left,stim/silver_coin.png,gold,,,,,training,,,silver,val,,,,,0.0,0.0,0.0,0.0,1.0,1.0,3.0,1.0,,,,,,,,,0.0,training_resp,,231.39704501940287,36.21264582021104,3.0,,left,silver,0.0,184.0,2.0,right,2023_May_09_1636,habits_v_MRI,5.0,40.0,1.0,5.0,30.0,15.0,5.0,15.0,30.0,30.0,60.0,RR,59.96783644582565,
24.0,1.0,resp2,stim/left_resp_img.png,"[0.5, 0]",left,stim/silver_coin.png,gold,,,,,training,,,silver,val,,,,,0.0,0.0,0.0,0.0,1.0,1.0,3.0,1.0,,,,,,,,,0.0,training_resp,,232.3802367491735,37.19585514473147,3.0,,left,silver,0.0,184.0,2.0,right,2023_May_09_1636,habits_v_MRI,5.0,40.0,1.0,5.0,30.0,15.0,5.0,15.0,30.0,30.0,60.0,RR,59.96783644582565,
24.0,1.0,resp2,stim/left_resp_img.png,"[0.5, 0]",left,stim/silver_coin.png,gold,,,,,training,,,silver,val,,,,,0.0,0.0,0.0,0.0,1.0,1.0,3.0,1.0,,,,,,,,,0.0,training_resp,,232.93022271734665,37.745840233168565,3.0,,left,silver,0.0,184.0,2.0,right,2023_May_09_1636,habits_v_MRI,5.0,40.0,1.0,5.0,30.0,15.0,5.0,15.0,30.0,30.0,60.0,RR,59.96783644582565,
24.0,1.0,resp2,stim/left_resp_img.png,"[0.5, 0]",left,stim/silver_coin.png,gold,,,,,training,,,silver,val,,,,,0.0,0.0,0.0,0.0,1.0,1.0,3.0,1.0,,,,,,,,,0.0,training_resp,,233.4468804058124,38.26247915388376,3.0,,left,silver,0.0,184.0,2.0,right,2023_May_09_1636,habits_v_MRI,5.0,40.0,1.0,5.0,30.0,15.0,5.0,15.0,30.0,30.0,60.0,RR,59.96783644582565,
24.0,1.0,resp2,stim/left_resp_img.png,"[0.5, 0]",left,stim/silver_coin.png,gold,,,,,training,,,silver,val,,,,,0.0,0.0,0.0,0.0,1.0,1.0,3.0,1.0,,,,,,,,,0.0,training_resp,,233.96350525072197,38.77915091814066,3.0,,left,silver,0.0,184.0,2.0,right,2023_May_09_1636,habits_v_MRI,5.0,40.0,1.0,5.0,30.0,15.0,5.0,15.0,30.0,30.0,60.0,RR,59.96783644582565,
24.0,1.0,resp2,stim/left_resp_img.png,"[0.5, 0]",left,stim/silver_coin.png,gold,,,,,training,,,silver,val,,,,,0.0,0.0,0.0,0.0,1.0,1.0,3.0,1.0,,,,,,,,,0.0,training_resp,,234.44700914077112,39.262473875453,3.0,,left,silver,0.0,184.0,2.0,right,2023_May_09_1636,habits_v_MRI,5.0,40.0,1.0,5.0,30.0,15.0,5.0,15.0,30.0,30.0,60.0,RR,59.96783644582565,
24.0,1.0,resp2,stim/left_resp_img.png,"[0.5, 0]",left,stim/silver_coin.png,gold,,,,,training,,,silver,val,,,,,0.0,0.0,0.0,0.0,1.0,1.0,3.0,1.0,,,,,,,,,0.0,training_resp,,234.9968713591661,39.81245515171031,3.0,,left,silver,0.0,184.0,2.0,right,2023_May_09_1636,habits_v_MRI,5.0,40.0,1.0,5.0,30.0,15.0,5.0,15.0,30.0,30.0,60.0,RR,59.96783644582565,
24.0,1.0,resp2,stim/left_resp_img.png,"[0.5, 0]",left,stim/silver_coin.png,gold,,,,,training,,,silver,val,,,,,0.0,0.0,0.0,0.0,1.0,1.0,3.0,1.0,,,,,,,,,0.0,training_resp,,235.53011239823536,40.34575278723787,3.0,,left,silver,0.0,184.0,2.0,right,2023_May_09_1636,habits_v_MRI,5.0,40.0,1.0,5.0,30.0,15.0,5.0,15.0,30.0,30.0,60.0,RR,59.96783644582565,
24.0,1.0,resp2,stim/left_resp_img.png,"[0.5, 0]",left,stim/silver_coin.png,gold,,,,,training,,,silver,val,,,,,0.0,0.0,0.0,0.0,1.0,1.0,3.0,1.0,,,,,,,,,0.0,training_resp,,236.0467721394089,40.86234244263324,3.0,,left,silver,0.0,184.0,2.0,right,2023_May_09_1636,habits_v_MRI,5.0,40.0,1.0,5.0,30.0,15.0,5.0,15.0,30.0,30.0,60.0,RR,59.96783644582565,
24.0,1.0,resp2,stim/left_resp_img.png,"[0.5, 0]",left,stim/silver_coin.png,gold,,,,,training,,,silver,val,,,,,0.0,0.0,0.0,0.0,1.0,1.0,3.0,1.0,,,,,,,,,0.0,training_resp,,236.58002432182548,41.39560195618833,3.0,,left,silver,0.0,184.0,2.0,right,2023_May_09_1636,habits_v_MRI,5.0,40.0,1.0,5.0,30.0,15.0,5.0,15.0,30.0,30.0,60.0,RR,59.96783644582565,
24.0,1.0,resp2,stim/left_resp_img.png,"[0.5, 0]",left,stim/silver_coin.png,gold,,,,,training,,,silver,val,,,,,0.0,0.0,0.0,0.0,1.0,1.0,3.0,1.0,,,,,,,,,0.0,training_resp,,237.0799590746028,41.89558040261909,3.0,,left,silver,0.0,184.0,2.0,right,2023_May_09_1636,habits_v_MRI,5.0,40.0,1.0,5.0,30.0,15.0,5.0,15.0,30.0,30.0,60.0,RR,59.96783644582565,
24.0,1.0,resp2,stim/left_resp_img.png,"[0.5, 0]",left,stim/silver_coin.png,gold,,,,,training,,,silver,val,,,,,0.0,0.0,0.0,0.0,1.0,1.0,3.0,1.0,,,,,,,,,0.0,training_resp,,237.62997319438728,42.44554965577845,3.0,14.0,left,silver,1.0,184.0,2.0,right,2023_May_09_1636,habits_v_MRI,5.0,40.0,1.0,5.0,30.0,15.0,5.0,15.0,30.0,30.0,60.0,RR,59.96783644582565,
24.0,1.0,resp2,stim/left_resp_img.png,"[0.5, 0]",left,stim/silver_coin.png,gold,,,,,training,,,silver,val,,,,,0.0,0.0,0.0,0.0,1.0,1.0,3.0,1.0,,,,,,,,,0.0,training_resp,,238.1300255387905,42.94553455361165,3.0,,left,silver,0.0,184.0,2.0,right,2023_May_09_1636,habits_v_MRI,5.0,40.0,1.0,5.0,30.0,15.0,5.0,15.0,30.0,30.0,60.0,RR,59.96783644582565,
24.0,1.0,resp2,stim/left_resp_img.png,"[0.5, 0]",left,stim/silver_coin.png,gold,,,,,training,,,silver,val,,,,,0.0,0.0,0.0,0.0,1.0,1.0,3.0,1.0,,,,,,,,,0.0,training_resp,,238.6799906865053,43.49557418579934,3.0,,left,silver,0.0,184.0,2.0,right,2023_May_09_1636,habits_v_MRI,5.0,40.0,1.0,5.0,30.0,15.0,5.0,15.0,30.0,30.0,60.0,RR,59.96783644582565,
24.0,1.0,resp2,stim/left_resp_img.png,"[0.5, 0]",left,stim/silver_coin.png,gold,,,,,training,,,silver,val,,,,,0.0,0.0,0.0,0.0,1.0,1.0,3.0,1.0,,,,,,,,,0.0,training_resp,,239.12991586481803,43.94550522901409,3.0,,left,silver,0.0,184.0,2.0,right,2023_May_09_1636,habits_v_MRI,5.0,40.0,1.0,5.0,30.0,15.0,5.0,15.0,30.0,30.0,60.0,RR,59.96783644582565,
24.0,1.0,resp2,stim/left_resp_img.png,"[0.5, 0]",left,stim/silver_coin.png,gold,,,,,training,,,silver,val,,,,,0.0,0.0,0.0,0.0,1.0,1.0,3.0,1.0,,,,,,,,,0.0,training_resp,,239.59652820277552,44.41212255216669,3.0,,left,silver,0.0,184.0,2.0,right,2023_May_09_1636,habits_v_MRI,5.0,40.0,1.0,5.0,30.0,15.0,5.0,15.0,30.0,30.0,60.0,RR,59.96783644582565,
