list,trial_num_python,condition,stimulus,position,corrResp,coin_img,devalued_coin,stimulus_choice1,stimulus_choice2,position1,position2,phase,corrResp1,corrResp2,outcome,cond_val,outcome_choice1,outcome_choice2,cond_val1,cond_val2,blockLoop.thisRepN,blockLoop.thisTrialN,blockLoop.thisN,blockLoop.thisIndex,trialLoop.thisRepN,trialLoop.thisTrialN,trialLoop.thisN,trialLoop.thisIndex,choice_trialLoop.thisRepN,choice_trialLoop.thisTrialN,choice_trialLoop.thisN,choice_trialLoop.thisIndex,contingency_trialLoop.thisRepN,contingency_trialLoop.thisTrialN,contingency_trialLoop.thisN,contingency_trialLoop.thisIndex,run,event,duration,globalClock_t,routineClock_t,trial,nResp_untilRnf,resp,selected_coin,wasRnf,n_repeat_training,credits_per_rnf,cost_response,min_resp_bet_rnf,max_resp_bet_rnf,mean_resp_bet_rnf,sigma_resp_bet_rnf,min_ITI,max_ITI,min_trial_duration,max_trial_duration,schedule,participant,task_ordering,hand,date,expName,frameRate,Unnamed: 65
9.0,0.0,resp1,stim/right_resp_img.png,"[-0.5, 0]",right,stim/silver_coin.png,silver,,,,,training,,,silver,deval,,,,,0.0,0.0,0.0,0.0,0.0,0.0,0.0,0.0,,,,,,,,,0.0,instr_before_block,6.0,0.005872493085917,,,,,,,5.0,40.0,1.0,5.0,30.0,15.0,5.0,15.0,30.0,30.0,60.0,RR,9.0,1.0,right,2020_Feb_28_1107,habits_v_MRI,59.950002629166114,
9.0,0.0,resp1,stim/right_resp_img.png,"[-0.5, 0]",right,stim/silver_coin.png,silver,,,,,training,,,silver,deval,,,,,0.0,0.0,0.0,0.0,0.0,0.0,0.0,0.0,,,,,,,,,0.0,training_period_start,37.5,6.043182735273149,0.0,0.0,9.0,,,,5.0,40.0,1.0,5.0,30.0,15.0,5.0,15.0,30.0,30.0,60.0,RR,9.0,1.0,right,2020_Feb_28_1107,habits_v_MRI,59.950002629166114,
9.0,0.0,resp1,stim/right_resp_img.png,"[-0.5, 0]",right,stim/silver_coin.png,silver,,,,,training,,,silver,deval,,,,,0.0,0.0,0.0,0.0,0.0,0.0,0.0,0.0,,,,,,,,,0.0,training_resp,,8.822049032663926,2.7996229476411827,0.0,,right,silver,0.0,5.0,40.0,1.0,5.0,30.0,15.0,5.0,15.0,30.0,30.0,60.0,RR,9.0,1.0,right,2020_Feb_28_1107,habits_v_MRI,59.950002629166114,
9.0,0.0,resp1,stim/right_resp_img.png,"[-0.5, 0]",right,stim/silver_coin.png,silver,,,,,training,,,silver,deval,,,,,0.0,0.0,0.0,0.0,0.0,0.0,0.0,0.0,,,,,,,,,0.0,training_resp,,10.689037328760604,4.666819153295364,0.0,,right,silver,0.0,5.0,40.0,1.0,5.0,30.0,15.0,5.0,15.0,30.0,30.0,60.0,RR,9.0,1.0,right,2020_Feb_28_1107,habits_v_MRI,59.950002629166114,
9.0,0.0,resp1,stim/right_resp_img.png,"[-0.5, 0]",right,stim/silver_coin.png,silver,,,,,training,,,silver,deval,,,,,0.0,0.0,0.0,0.0,0.0,0.0,0.0,0.0,,,,,,,,,0.0,training_resp,,12.272808474546764,6.250597923411988,0.0,,right,silver,0.0,5.0,40.0,1.0,5.0,30.0,15.0,5.0,15.0,30.0,30.0,60.0,RR,9.0,1.0,right,2020_Feb_28_1107,habits_v_MRI,59.950002629166114,
9.0,0.0,resp1,stim/right_resp_img.png,"[-0.5, 0]",right,stim/silver_coin.png,silver,,,,,training,,,silver,deval,,,,,0.0,0.0,0.0,0.0,0.0,0.0,0.0,0.0,,,,,,,,,0.0,training_resp,,14.173441176535562,8.151208632159978,0.0,,right,silver,0.0,5.0,40.0,1.0,5.0,30.0,15.0,5.0,15.0,30.0,30.0,60.0,RR,9.0,1.0,right,2020_Feb_28_1107,habits_v_MRI,59.950002629166114,
9.0,0.0,resp1,stim/right_resp_img.png,"[-0.5, 0]",right,stim/silver_coin.png,silver,,,,,training,,,silver,deval,,,,,0.0,0.0,0.0,0.0,0.0,0.0,0.0,0.0,,,,,,,,,0.0,training_resp,,16.20736064488301,10.185135431587696,0.0,,right,silver,0.0,5.0,40.0,1.0,5.0,30.0,15.0,5.0,15.0,30.0,30.0,60.0,RR,9.0,1.0,right,2020_Feb_28_1107,habits_v_MRI,59.950002629166114,
9.0,0.0,resp1,stim/right_resp_img.png,"[-0.5, 0]",right,stim/silver_coin.png,silver,,,,,training,,,silver,deval,,,,,0.0,0.0,0.0,0.0,0.0,0.0,0.0,0.0,,,,,,,,,0.0,training_resp,,17.82446271937806,11.80224366422044,0.0,,right,silver,0.0,5.0,40.0,1.0,5.0,30.0,15.0,5.0,15.0,30.0,30.0,60.0,RR,9.0,1.0,right,2020_Feb_28_1107,habits_v_MRI,59.950002629166114,
9.0,0.0,resp1,stim/right_resp_img.png,"[-0.5, 0]",right,stim/silver_coin.png,silver,,,,,training,,,silver,deval,,,,,0.0,0.0,0.0,0.0,0.0,0.0,0.0,0.0,,,,,,,,,0.0,training_resp,,19.29154203820508,13.269322689797264,0.0,,right,silver,0.0,5.0,40.0,1.0,5.0,30.0,15.0,5.0,15.0,30.0,30.0,60.0,RR,9.0,1.0,right,2020_Feb_28_1107,habits_v_MRI,59.950002629166114,
9.0,0.0,resp1,stim/right_resp_img.png,"[-0.5, 0]",right,stim/silver_coin.png,silver,,,,,training,,,silver,deval,,,,,0.0,0.0,0.0,0.0,0.0,0.0,0.0,0.0,,,,,,,,,0.0,training_resp,,20.79195639118552,14.769734696834348,0.0,,right,silver,0.0,5.0,40.0,1.0,5.0,30.0,15.0,5.0,15.0,30.0,30.0,60.0,RR,9.0,1.0,right,2020_Feb_28_1107,habits_v_MRI,59.950002629166114,
9.0,0.0,resp1,stim/right_resp_img.png,"[-0.5, 0]",right,stim/silver_coin.png,silver,,,,,training,,,silver,deval,,,,,0.0,0.0,0.0,0.0,0.0,0.0,0.0,0.0,,,,,,,,,0.0,training_resp,,22.225637335330248,16.20342179905856,0.0,18.0,right,silver,1.0,5.0,40.0,1.0,5.0,30.0,15.0,5.0,15.0,30.0,30.0,60.0,RR,9.0,1.0,right,2020_Feb_28_1107,habits_v_MRI,59.950002629166114,
9.0,0.0,resp1,stim/right_resp_img.png,"[-0.5, 0]",right,stim/silver_coin.png,silver,,,,,training,,,silver,deval,,,,,0.0,0.0,0.0,0.0,0.0,0.0,0.0,0.0,,,,,,,,,0.0,training_resp,,23.676210860838182,17.653885944746435,0.0,,right,silver,0.0,5.0,40.0,1.0,5.0,30.0,15.0,5.0,15.0,30.0,30.0,60.0,RR,9.0,1.0,right,2020_Feb_28_1107,habits_v_MRI,59.950002629166114,
9.0,0.0,resp1,stim/right_resp_img.png,"[-0.5, 0]",right,stim/silver_coin.png,silver,,,,,training,,,silver,deval,,,,,0.0,0.0,0.0,0.0,0.0,0.0,0.0,0.0,,,,,,,,,0.0,training_resp,,25.159800664871,19.13757955696201,0.0,,right,silver,0.0,5.0,40.0,1.0,5.0,30.0,15.0,5.0,15.0,30.0,30.0,60.0,RR,9.0,1.0,right,2020_Feb_28_1107,habits_v_MRI,59.950002629166114,
9.0,0.0,resp1,stim/right_resp_img.png,"[-0.5, 0]",right,stim/silver_coin.png,silver,,,,,training,,,silver,deval,,,,,0.0,0.0,0.0,0.0,0.0,0.0,0.0,0.0,,,,,,,,,0.0,training_resp,,26.276872535294387,20.25461917062057,0.0,,right,silver,0.0,5.0,40.0,1.0,5.0,30.0,15.0,5.0,15.0,30.0,30.0,60.0,RR,9.0,1.0,right,2020_Feb_28_1107,habits_v_MRI,59.950002629166114,
9.0,0.0,resp1,stim/right_resp_img.png,"[-0.5, 0]",right,stim/silver_coin.png,silver,,,,,training,,,silver,deval,,,,,0.0,0.0,0.0,0.0,0.0,0.0,0.0,0.0,,,,,,,,,0.0,training_resp,,27.34387191600399,21.321606235054787,0.0,,right,silver,0.0,5.0,40.0,1.0,5.0,30.0,15.0,5.0,15.0,30.0,30.0,60.0,RR,9.0,1.0,right,2020_Feb_28_1107,habits_v_MRI,59.950002629166114,
9.0,0.0,resp1,stim/right_resp_img.png,"[-0.5, 0]",right,stim/silver_coin.png,silver,,,,,training,,,silver,deval,,,,,0.0,0.0,0.0,0.0,0.0,0.0,0.0,0.0,,,,,,,,,0.0,training_resp,,28.727628458233085,22.70536101789912,0.0,,right,silver,0.0,5.0,40.0,1.0,5.0,30.0,15.0,5.0,15.0,30.0,30.0,60.0,RR,9.0,1.0,right,2020_Feb_28_1107,habits_v_MRI,59.950002629166114,
9.0,0.0,resp1,stim/right_resp_img.png,"[-0.5, 0]",right,stim/silver_coin.png,silver,,,,,training,,,silver,deval,,,,,0.0,0.0,0.0,0.0,0.0,0.0,0.0,0.0,,,,,,,,,0.0,training_resp,,29.794656576763373,23.772394708008505,0.0,,right,silver,0.0,5.0,40.0,1.0,5.0,30.0,15.0,5.0,15.0,30.0,30.0,60.0,RR,9.0,1.0,right,2020_Feb_28_1107,habits_v_MRI,59.950002629166114,
9.0,0.0,resp1,stim/right_resp_img.png,"[-0.5, 0]",right,stim/silver_coin.png,silver,,,,,training,,,silver,deval,,,,,0.0,0.0,0.0,0.0,0.0,0.0,0.0,0.0,,,,,,,,,0.0,training_resp,,30.71154816116905,24.68925315589877,0.0,,right,silver,0.0,5.0,40.0,1.0,5.0,30.0,15.0,5.0,15.0,30.0,30.0,60.0,RR,9.0,1.0,right,2020_Feb_28_1107,habits_v_MRI,59.950002629166114,
9.0,0.0,resp1,stim/right_resp_img.png,"[-0.5, 0]",right,stim/silver_coin.png,silver,,,,,training,,,silver,deval,,,,,0.0,0.0,0.0,0.0,0.0,0.0,0.0,0.0,,,,,,,,,0.0,training_resp,,32.29530200560112,26.27301902329782,0.0,,right,silver,0.0,5.0,40.0,1.0,5.0,30.0,15.0,5.0,15.0,30.0,30.0,60.0,RR,9.0,1.0,right,2020_Feb_28_1107,habits_v_MRI,59.950002629166114,
9.0,0.0,resp1,stim/right_resp_img.png,"[-0.5, 0]",right,stim/silver_coin.png,silver,,,,,training,,,silver,deval,,,,,0.0,0.0,0.0,0.0,0.0,0.0,0.0,0.0,,,,,,,,,0.0,training_resp,,33.51237135415431,27.49006901780376,0.0,,right,silver,0.0,5.0,40.0,1.0,5.0,30.0,15.0,5.0,15.0,30.0,30.0,60.0,RR,9.0,1.0,right,2020_Feb_28_1107,habits_v_MRI,59.950002629166114,
9.0,0.0,resp1,stim/right_resp_img.png,"[-0.5, 0]",right,stim/silver_coin.png,silver,,,,,training,,,silver,deval,,,,,0.0,0.0,0.0,0.0,0.0,0.0,0.0,0.0,,,,,,,,,0.0,training_resp,,36.02964867092669,30.0073826967855,0.0,,left,,,5.0,40.0,1.0,5.0,30.0,15.0,5.0,15.0,30.0,30.0,60.0,RR,9.0,1.0,right,2020_Feb_28_1107,habits_v_MRI,59.950002629166114,
9.0,0.0,resp1,stim/right_resp_img.png,"[-0.5, 0]",right,stim/silver_coin.png,silver,,,,,training,,,silver,deval,,,,,0.0,0.0,0.0,0.0,0.0,0.0,0.0,0.0,,,,,,,,,0.0,training_resp,,37.06361916358583,31.0413440989214,0.0,,left,,,5.0,40.0,1.0,5.0,30.0,15.0,5.0,15.0,30.0,30.0,60.0,RR,9.0,1.0,right,2020_Feb_28_1107,habits_v_MRI,59.950002629166114,
9.0,0.0,resp1,stim/right_resp_img.png,"[-0.5, 0]",right,stim/silver_coin.png,silver,,,,,training,,,silver,deval,,,,,0.0,0.0,0.0,0.0,0.0,0.0,0.0,0.0,,,,,,,,,0.0,training_resp,,38.747471948328894,32.725160814705305,0.0,,right,silver,0.0,5.0,40.0,1.0,5.0,30.0,15.0,5.0,15.0,30.0,30.0,60.0,RR,9.0,1.0,right,2020_Feb_28_1107,habits_v_MRI,59.950002629166114,
9.0,0.0,resp1,stim/right_resp_img.png,"[-0.5, 0]",right,stim/silver_coin.png,silver,,,,,training,,,silver,deval,,,,,0.0,0.0,0.0,0.0,0.0,0.0,0.0,0.0,,,,,,,,,0.0,training_resp,,40.04783298965776,34.02548783982638,0.0,,right,silver,0.0,5.0,40.0,1.0,5.0,30.0,15.0,5.0,15.0,30.0,30.0,60.0,RR,9.0,1.0,right,2020_Feb_28_1107,habits_v_MRI,59.950002629166114,
9.0,0.0,resp1,stim/right_resp_img.png,"[-0.5, 0]",right,stim/silver_coin.png,silver,,,,,training,,,silver,deval,,,,,0.0,0.0,0.0,0.0,0.0,0.0,0.0,0.0,,,,,,,,,0.0,training_resp,,42.01501992886188,35.99271084793145,0.0,,right,silver,0.0,5.0,40.0,1.0,5.0,30.0,15.0,5.0,15.0,30.0,30.0,60.0,RR,9.0,1.0,right,2020_Feb_28_1107,habits_v_MRI,59.950002629166114,
9.0,0.0,resp1,stim/right_resp_img.png,"[-0.5, 0]",right,stim/silver_coin.png,silver,,,,,training,,,silver,deval,,,,,0.0,0.0,0.0,0.0,0.0,0.0,0.0,0.0,,,,,,,,,0.0,ITI_start,21.666666666666668,43.19995712785749,37.17644252313767,,,,,,5.0,40.0,1.0,5.0,30.0,15.0,5.0,15.0,30.0,30.0,60.0,RR,9.0,1.0,right,2020_Feb_28_1107,habits_v_MRI,59.950002629166114,
9.0,1.0,resp2,stim/left_resp_img.png,"[0.5, 0]",left,stim/gold_coin.png,silver,,,,,training,,,gold,val,,,,,0.0,0.0,0.0,0.0,0.0,1.0,1.0,1.0,,,,,,,,,0.0,training_period_start,30.0,64.90714739827672,0.0,1.0,9.0,,,,5.0,40.0,1.0,5.0,30.0,15.0,5.0,15.0,30.0,30.0,60.0,RR,9.0,1.0,right,2020_Feb_28_1107,habits_v_MRI,59.950002629166114,
9.0,1.0,resp2,stim/left_resp_img.png,"[0.5, 0]",left,stim/gold_coin.png,silver,,,,,training,,,gold,val,,,,,0.0,0.0,0.0,0.0,0.0,1.0,1.0,1.0,,,,,,,,,0.0,training_resp,,67.63855195220094,2.749204430554528,1.0,,left,gold,0.0,5.0,40.0,1.0,5.0,30.0,15.0,5.0,15.0,30.0,30.0,60.0,RR,9.0,1.0,right,2020_Feb_28_1107,habits_v_MRI,59.950002629166114,
9.0,1.0,resp2,stim/left_resp_img.png,"[0.5, 0]",left,stim/gold_coin.png,silver,,,,,training,,,gold,val,,,,,0.0,0.0,0.0,0.0,0.0,1.0,1.0,1.0,,,,,,,,,0.0,training_resp,,69.35569930350175,4.4663682035170496,1.0,,left,gold,0.0,5.0,40.0,1.0,5.0,30.0,15.0,5.0,15.0,30.0,30.0,60.0,RR,9.0,1.0,right,2020_Feb_28_1107,habits_v_MRI,59.950002629166114,
9.0,1.0,resp2,stim/left_resp_img.png,"[0.5, 0]",left,stim/gold_coin.png,silver,,,,,training,,,gold,val,,,,,0.0,0.0,0.0,0.0,0.0,1.0,1.0,1.0,,,,,,,,,0.0,training_resp,,71.20615453459322,6.3168427886557765,1.0,,left,gold,0.0,5.0,40.0,1.0,5.0,30.0,15.0,5.0,15.0,30.0,30.0,60.0,RR,9.0,1.0,right,2020_Feb_28_1107,habits_v_MRI,59.950002629166114,
9.0,1.0,resp2,stim/left_resp_img.png,"[0.5, 0]",left,stim/gold_coin.png,silver,,,,,training,,,gold,val,,,,,0.0,0.0,0.0,0.0,0.0,1.0,1.0,1.0,,,,,,,,,0.0,training_resp,,73.60721214639489,8.717766974703409,1.0,,left,gold,0.0,5.0,40.0,1.0,5.0,30.0,15.0,5.0,15.0,30.0,30.0,60.0,RR,9.0,1.0,right,2020_Feb_28_1107,habits_v_MRI,59.950002629166114,
9.0,1.0,resp2,stim/left_resp_img.png,"[0.5, 0]",left,stim/gold_coin.png,silver,,,,,training,,,gold,val,,,,,0.0,0.0,0.0,0.0,0.0,1.0,1.0,1.0,,,,,,,,,0.0,training_resp,,76.05782965844264,11.168494453013407,1.0,,left,gold,0.0,5.0,40.0,1.0,5.0,30.0,15.0,5.0,15.0,30.0,30.0,60.0,RR,9.0,1.0,right,2020_Feb_28_1107,habits_v_MRI,59.950002629166114,
9.0,1.0,resp2,stim/left_resp_img.png,"[0.5, 0]",left,stim/gold_coin.png,silver,,,,,training,,,gold,val,,,,,0.0,0.0,0.0,0.0,0.0,1.0,1.0,1.0,,,,,,,,,0.0,training_resp,,78.17509272356983,13.285771300608758,1.0,,left,gold,0.0,5.0,40.0,1.0,5.0,30.0,15.0,5.0,15.0,30.0,30.0,60.0,RR,9.0,1.0,right,2020_Feb_28_1107,habits_v_MRI,59.950002629166114,
9.0,1.0,resp2,stim/left_resp_img.png,"[0.5, 0]",left,stim/gold_coin.png,silver,,,,,training,,,gold,val,,,,,0.0,0.0,0.0,0.0,0.0,1.0,1.0,1.0,,,,,,,,,0.0,training_resp,,80.39245033042971,15.503065273631364,1.0,,left,gold,0.0,5.0,40.0,1.0,5.0,30.0,15.0,5.0,15.0,30.0,30.0,60.0,RR,9.0,1.0,right,2020_Feb_28_1107,habits_v_MRI,59.950002629166114,
9.0,1.0,resp2,stim/left_resp_img.png,"[0.5, 0]",left,stim/gold_coin.png,silver,,,,,training,,,gold,val,,,,,0.0,0.0,0.0,0.0,0.0,1.0,1.0,1.0,,,,,,,,,0.0,training_resp,,82.6267122484278,17.73726678348612,1.0,,left,gold,0.0,5.0,40.0,1.0,5.0,30.0,15.0,5.0,15.0,30.0,30.0,60.0,RR,9.0,1.0,right,2020_Feb_28_1107,habits_v_MRI,59.950002629166114,
9.0,1.0,resp2,stim/left_resp_img.png,"[0.5, 0]",left,stim/gold_coin.png,silver,,,,,training,,,gold,val,,,,,0.0,0.0,0.0,0.0,0.0,1.0,1.0,1.0,,,,,,,,,0.0,training_resp,,85.84421794326045,20.954733476915862,1.0,6.0,left,gold,1.0,5.0,40.0,1.0,5.0,30.0,15.0,5.0,15.0,30.0,30.0,60.0,RR,9.0,1.0,right,2020_Feb_28_1107,habits_v_MRI,59.950002629166114,
9.0,1.0,resp2,stim/left_resp_img.png,"[0.5, 0]",left,stim/gold_coin.png,silver,,,,,training,,,gold,val,,,,,0.0,0.0,0.0,0.0,0.0,1.0,1.0,1.0,,,,,,,,,0.0,training_resp,,87.86157942091813,22.97203982481733,1.0,,left,gold,0.0,5.0,40.0,1.0,5.0,30.0,15.0,5.0,15.0,30.0,30.0,60.0,RR,9.0,1.0,right,2020_Feb_28_1107,habits_v_MRI,59.950002629166114,
9.0,1.0,resp2,stim/left_resp_img.png,"[0.5, 0]",left,stim/gold_coin.png,silver,,,,,training,,,gold,val,,,,,0.0,0.0,0.0,0.0,0.0,1.0,1.0,1.0,,,,,,,,,0.0,training_resp,,89.29528353124624,24.40578938787803,1.0,,left,gold,0.0,5.0,40.0,1.0,5.0,30.0,15.0,5.0,15.0,30.0,30.0,60.0,RR,9.0,1.0,right,2020_Feb_28_1107,habits_v_MRI,59.950002629166114,
9.0,1.0,resp2,stim/left_resp_img.png,"[0.5, 0]",left,stim/gold_coin.png,silver,,,,,training,,,gold,val,,,,,0.0,0.0,0.0,0.0,0.0,1.0,1.0,1.0,,,,,,,,,0.0,training_resp,,91.06303824833594,26.17357313609682,1.0,,left,gold,0.0,5.0,40.0,1.0,5.0,30.0,15.0,5.0,15.0,30.0,30.0,60.0,RR,9.0,1.0,right,2020_Feb_28_1107,habits_v_MRI,59.950002629166114,
9.0,1.0,resp2,stim/left_resp_img.png,"[0.5, 0]",left,stim/gold_coin.png,silver,,,,,training,,,gold,val,,,,,0.0,0.0,0.0,0.0,0.0,1.0,1.0,1.0,,,,,,,,,0.0,training_resp,,93.76298393966864,28.873500939575024,1.0,,left,gold,0.0,5.0,40.0,1.0,5.0,30.0,15.0,5.0,15.0,30.0,30.0,60.0,RR,9.0,1.0,right,2020_Feb_28_1107,habits_v_MRI,59.950002629166114,
9.0,1.0,resp2,stim/left_resp_img.png,"[0.5, 0]",left,stim/gold_coin.png,silver,,,,,training,,,gold,val,,,,,0.0,0.0,0.0,0.0,0.0,1.0,1.0,1.0,,,,,,,,,0.0,ITI_start,28.333333333333336,94.564251689706,29.673701283463743,,,,,,5.0,40.0,1.0,5.0,30.0,15.0,5.0,15.0,30.0,30.0,60.0,RR,9.0,1.0,right,2020_Feb_28_1107,habits_v_MRI,59.950002629166114,
9.0,0.0,resp1,stim/right_resp_img.png,"[-0.5, 0]",right,stim/silver_coin.png,silver,,,,,training,,,silver,deval,,,,,0.0,0.0,0.0,0.0,1.0,0.0,2.0,0.0,,,,,,,,,0.0,training_period_start,60.0,122.92646656907164,0.0,2.0,16.0,,,,5.0,40.0,1.0,5.0,30.0,15.0,5.0,15.0,30.0,30.0,60.0,RR,9.0,1.0,right,2020_Feb_28_1107,habits_v_MRI,59.950002629166114,
9.0,0.0,resp1,stim/right_resp_img.png,"[-0.5, 0]",right,stim/silver_coin.png,silver,,,,,training,,,silver,deval,,,,,0.0,0.0,0.0,0.0,1.0,0.0,2.0,0.0,,,,,,,,,0.0,training_resp,,125.75539626576938,2.849000743648503,2.0,,right,silver,0.0,5.0,40.0,1.0,5.0,30.0,15.0,5.0,15.0,30.0,30.0,60.0,RR,9.0,1.0,right,2020_Feb_28_1107,habits_v_MRI,59.950002629166114,
9.0,0.0,resp1,stim/right_resp_img.png,"[-0.5, 0]",right,stim/silver_coin.png,silver,,,,,training,,,silver,deval,,,,,0.0,0.0,0.0,0.0,1.0,0.0,2.0,0.0,,,,,,,,,0.0,training_resp,,127.90595536370527,4.999543713231105,2.0,,right,silver,0.0,5.0,40.0,1.0,5.0,30.0,15.0,5.0,15.0,30.0,30.0,60.0,RR,9.0,1.0,right,2020_Feb_28_1107,habits_v_MRI,59.950002629166114,
9.0,0.0,resp1,stim/right_resp_img.png,"[-0.5, 0]",right,stim/silver_coin.png,silver,,,,,training,,,silver,deval,,,,,0.0,0.0,0.0,0.0,1.0,0.0,2.0,0.0,,,,,,,,,0.0,training_resp,,130.2902740536374,7.38388205046067,2.0,,right,silver,0.0,5.0,40.0,1.0,5.0,30.0,15.0,5.0,15.0,30.0,30.0,60.0,RR,9.0,1.0,right,2020_Feb_28_1107,habits_v_MRI,59.950002629166114,
9.0,0.0,resp1,stim/right_resp_img.png,"[-0.5, 0]",right,stim/silver_coin.png,silver,,,,,training,,,silver,deval,,,,,0.0,0.0,0.0,0.0,1.0,0.0,2.0,0.0,,,,,,,,,0.0,training_resp,,132.09091954107862,9.184457452734932,2.0,,right,silver,0.0,5.0,40.0,1.0,5.0,30.0,15.0,5.0,15.0,30.0,30.0,60.0,RR,9.0,1.0,right,2020_Feb_28_1107,habits_v_MRI,59.950002629166114,
9.0,0.0,resp1,stim/right_resp_img.png,"[-0.5, 0]",right,stim/silver_coin.png,silver,,,,,training,,,silver,deval,,,,,0.0,0.0,0.0,0.0,1.0,0.0,2.0,0.0,,,,,,,,,0.0,training_resp,,133.6079429090605,10.70151161128888,2.0,,right,silver,0.0,5.0,40.0,1.0,5.0,30.0,15.0,5.0,15.0,30.0,30.0,60.0,RR,9.0,1.0,right,2020_Feb_28_1107,habits_v_MRI,59.950002629166114,
9.0,0.0,resp1,stim/right_resp_img.png,"[-0.5, 0]",right,stim/silver_coin.png,silver,,,,,training,,,silver,deval,,,,,0.0,0.0,0.0,0.0,1.0,0.0,2.0,0.0,,,,,,,,,0.0,training_resp,,135.74195164063713,12.835481927962974,2.0,,right,silver,0.0,5.0,40.0,1.0,5.0,30.0,15.0,5.0,15.0,30.0,30.0,60.0,RR,9.0,1.0,right,2020_Feb_28_1107,habits_v_MRI,59.950002629166114,
9.0,0.0,resp1,stim/right_resp_img.png,"[-0.5, 0]",right,stim/silver_coin.png,silver,,,,,training,,,silver,deval,,,,,0.0,0.0,0.0,0.0,1.0,0.0,2.0,0.0,,,,,,,,,0.0,training_resp,,137.67636041494552,14.769888063136024,2.0,,right,silver,0.0,5.0,40.0,1.0,5.0,30.0,15.0,5.0,15.0,30.0,30.0,60.0,RR,9.0,1.0,right,2020_Feb_28_1107,habits_v_MRI,59.950002629166114,
9.0,0.0,resp1,stim/right_resp_img.png,"[-0.5, 0]",right,stim/silver_coin.png,silver,,,,,training,,,silver,deval,,,,,0.0,0.0,0.0,0.0,1.0,0.0,2.0,0.0,,,,,,,,,0.0,training_resp,,139.4928369426052,16.586427638074383,2.0,,right,silver,0.0,5.0,40.0,1.0,5.0,30.0,15.0,5.0,15.0,30.0,30.0,60.0,RR,9.0,1.0,right,2020_Feb_28_1107,habits_v_MRI,59.950002629166114,
9.0,0.0,resp1,stim/right_resp_img.png,"[-0.5, 0]",right,stim/silver_coin.png,silver,,,,,training,,,silver,deval,,,,,0.0,0.0,0.0,0.0,1.0,0.0,2.0,0.0,,,,,,,,,0.0,training_resp,,141.2266475589713,18.320211569254752,2.0,,right,silver,0.0,5.0,40.0,1.0,5.0,30.0,15.0,5.0,15.0,30.0,30.0,60.0,RR,9.0,1.0,right,2020_Feb_28_1107,habits_v_MRI,59.950002629166114,
9.0,0.0,resp1,stim/right_resp_img.png,"[-0.5, 0]",right,stim/silver_coin.png,silver,,,,,training,,,silver,deval,,,,,0.0,0.0,0.0,0.0,1.0,0.0,2.0,0.0,,,,,,,,,0.0,training_resp,,142.9269530599704,20.020549033826683,2.0,,right,silver,0.0,5.0,40.0,1.0,5.0,30.0,15.0,5.0,15.0,30.0,30.0,60.0,RR,9.0,1.0,right,2020_Feb_28_1107,habits_v_MRI,59.950002629166114,
9.0,0.0,resp1,stim/right_resp_img.png,"[-0.5, 0]",right,stim/silver_coin.png,silver,,,,,training,,,silver,deval,,,,,0.0,0.0,0.0,0.0,1.0,0.0,2.0,0.0,,,,,,,,,0.0,training_resp,,145.27760271145962,22.37121979886433,2.0,,right,silver,0.0,5.0,40.0,1.0,5.0,30.0,15.0,5.0,15.0,30.0,30.0,60.0,RR,9.0,1.0,right,2020_Feb_28_1107,habits_v_MRI,59.950002629166114,
9.0,0.0,resp1,stim/right_resp_img.png,"[-0.5, 0]",right,stim/silver_coin.png,silver,,,,,training,,,silver,deval,,,,,0.0,0.0,0.0,0.0,1.0,0.0,2.0,0.0,,,,,,,,,0.0,training_resp,,146.94469927303726,24.038348617148586,2.0,,right,silver,0.0,5.0,40.0,1.0,5.0,30.0,15.0,5.0,15.0,30.0,30.0,60.0,RR,9.0,1.0,right,2020_Feb_28_1107,habits_v_MRI,59.950002629166114,
9.0,0.0,resp1,stim/right_resp_img.png,"[-0.5, 0]",right,stim/silver_coin.png,silver,,,,,training,,,silver,deval,,,,,0.0,0.0,0.0,0.0,1.0,0.0,2.0,0.0,,,,,,,,,0.0,training_resp,,149.11205183609854,26.20569355593761,2.0,,right,silver,0.0,5.0,40.0,1.0,5.0,30.0,15.0,5.0,15.0,30.0,30.0,60.0,RR,9.0,1.0,right,2020_Feb_28_1107,habits_v_MRI,59.950002629166114,
9.0,0.0,resp1,stim/right_resp_img.png,"[-0.5, 0]",right,stim/silver_coin.png,silver,,,,,training,,,silver,deval,,,,,0.0,0.0,0.0,0.0,1.0,0.0,2.0,0.0,,,,,,,,,0.0,training_resp,,151.81285262526944,28.906482908583712,2.0,,right,silver,0.0,5.0,40.0,1.0,5.0,30.0,15.0,5.0,15.0,30.0,30.0,60.0,RR,9.0,1.0,right,2020_Feb_28_1107,habits_v_MRI,59.950002629166114,
9.0,0.0,resp1,stim/right_resp_img.png,"[-0.5, 0]",right,stim/silver_coin.png,silver,,,,,training,,,silver,deval,,,,,0.0,0.0,0.0,0.0,1.0,0.0,2.0,0.0,,,,,,,,,0.0,training_resp,,154.7303644195199,31.823992943391204,2.0,,right,silver,0.0,5.0,40.0,1.0,5.0,30.0,15.0,5.0,15.0,30.0,30.0,60.0,RR,9.0,1.0,right,2020_Feb_28_1107,habits_v_MRI,59.950002629166114,
9.0,0.0,resp1,stim/right_resp_img.png,"[-0.5, 0]",right,stim/silver_coin.png,silver,,,,,training,,,silver,deval,,,,,0.0,0.0,0.0,0.0,1.0,0.0,2.0,0.0,,,,,,,,,0.0,training_resp,,158.4981027150061,35.59173006587662,2.0,21.0,right,silver,1.0,5.0,40.0,1.0,5.0,30.0,15.0,5.0,15.0,30.0,30.0,60.0,RR,9.0,1.0,right,2020_Feb_28_1107,habits_v_MRI,59.950002629166114,
9.0,0.0,resp1,stim/right_resp_img.png,"[-0.5, 0]",right,stim/silver_coin.png,silver,,,,,training,,,silver,deval,,,,,0.0,0.0,0.0,0.0,1.0,0.0,2.0,0.0,,,,,,,,,0.0,training_resp,,161.81575192313176,38.90936637128471,2.0,,right,silver,0.0,5.0,40.0,1.0,5.0,30.0,15.0,5.0,15.0,30.0,30.0,60.0,RR,9.0,1.0,right,2020_Feb_28_1107,habits_v_MRI,59.950002629166114,
9.0,0.0,resp1,stim/right_resp_img.png,"[-0.5, 0]",right,stim/silver_coin.png,silver,,,,,training,,,silver,deval,,,,,0.0,0.0,0.0,0.0,1.0,0.0,2.0,0.0,,,,,,,,,0.0,training_resp,,164.34977666579653,41.44340870861197,2.0,,right,silver,0.0,5.0,40.0,1.0,5.0,30.0,15.0,5.0,15.0,30.0,30.0,60.0,RR,9.0,1.0,right,2020_Feb_28_1107,habits_v_MRI,59.950002629166114,
9.0,0.0,resp1,stim/right_resp_img.png,"[-0.5, 0]",right,stim/silver_coin.png,silver,,,,,training,,,silver,deval,,,,,0.0,0.0,0.0,0.0,1.0,0.0,2.0,0.0,,,,,,,,,0.0,training_resp,,166.96719016489806,44.06082367390627,2.0,,right,silver,0.0,5.0,40.0,1.0,5.0,30.0,15.0,5.0,15.0,30.0,30.0,60.0,RR,9.0,1.0,right,2020_Feb_28_1107,habits_v_MRI,59.950002629166114,
9.0,0.0,resp1,stim/right_resp_img.png,"[-0.5, 0]",right,stim/silver_coin.png,silver,,,,,training,,,silver,deval,,,,,0.0,0.0,0.0,0.0,1.0,0.0,2.0,0.0,,,,,,,,,0.0,training_resp,,170.03484758379636,47.12842625629855,2.0,,right,silver,0.0,5.0,40.0,1.0,5.0,30.0,15.0,5.0,15.0,30.0,30.0,60.0,RR,9.0,1.0,right,2020_Feb_28_1107,habits_v_MRI,59.950002629166114,
9.0,0.0,resp1,stim/right_resp_img.png,"[-0.5, 0]",right,stim/silver_coin.png,silver,,,,,training,,,silver,deval,,,,,0.0,0.0,0.0,0.0,1.0,0.0,2.0,0.0,,,,,,,,,0.0,training_resp,,173.96920181484893,51.06278840493178,2.0,,right,silver,0.0,5.0,40.0,1.0,5.0,30.0,15.0,5.0,15.0,30.0,30.0,60.0,RR,9.0,1.0,right,2020_Feb_28_1107,habits_v_MRI,59.950002629166114,
9.0,0.0,resp1,stim/right_resp_img.png,"[-0.5, 0]",right,stim/silver_coin.png,silver,,,,,training,,,silver,deval,,,,,0.0,0.0,0.0,0.0,1.0,0.0,2.0,0.0,,,,,,,,,0.0,training_resp,,177.60396564833354,54.69754725322127,2.0,,right,silver,0.0,5.0,40.0,1.0,5.0,30.0,15.0,5.0,15.0,30.0,30.0,60.0,RR,9.0,1.0,right,2020_Feb_28_1107,habits_v_MRI,59.950002629166114,
9.0,0.0,resp1,stim/right_resp_img.png,"[-0.5, 0]",right,stim/silver_coin.png,silver,,,,,training,,,silver,deval,,,,,0.0,0.0,0.0,0.0,1.0,0.0,2.0,0.0,,,,,,,,,0.0,training_resp,,180.4545402295189,57.54805380193284,2.0,,right,silver,0.0,5.0,40.0,1.0,5.0,30.0,15.0,5.0,15.0,30.0,30.0,60.0,RR,9.0,1.0,right,2020_Feb_28_1107,habits_v_MRI,59.950002629166114,
9.0,0.0,resp1,stim/right_resp_img.png,"[-0.5, 0]",right,stim/silver_coin.png,silver,,,,,training,,,silver,deval,,,,,0.0,0.0,0.0,0.0,1.0,0.0,2.0,0.0,,,,,,,,,0.0,ITI_start,16.666666666666668,182.5901591608417,59.68234873918118,,,,,,5.0,40.0,1.0,5.0,30.0,15.0,5.0,15.0,30.0,30.0,60.0,RR,9.0,1.0,right,2020_Feb_28_1107,habits_v_MRI,59.950002629166114,
9.0,1.0,resp2,stim/left_resp_img.png,"[0.5, 0]",left,stim/gold_coin.png,silver,,,,,training,,,gold,val,,,,,0.0,0.0,0.0,0.0,1.0,1.0,3.0,1.0,,,,,,,,,0.0,training_period_start,45.0,199.29415542376228,0.0,3.0,8.0,,,,5.0,40.0,1.0,5.0,30.0,15.0,5.0,15.0,30.0,30.0,60.0,RR,9.0,1.0,right,2020_Feb_28_1107,habits_v_MRI,59.950002629166114,
9.0,1.0,resp2,stim/left_resp_img.png,"[0.5, 0]",left,stim/gold_coin.png,silver,,,,,training,,,gold,val,,,,,0.0,0.0,0.0,0.0,1.0,1.0,3.0,1.0,,,,,,,,,0.0,training_resp,,201.9437063507503,2.666061998694204,3.0,,left,gold,0.0,5.0,40.0,1.0,5.0,30.0,15.0,5.0,15.0,30.0,30.0,60.0,RR,9.0,1.0,right,2020_Feb_28_1107,habits_v_MRI,59.950002629166114,
9.0,1.0,resp2,stim/left_resp_img.png,"[0.5, 0]",left,stim/gold_coin.png,silver,,,,,training,,,gold,val,,,,,0.0,0.0,0.0,0.0,1.0,1.0,3.0,1.0,,,,,,,,,0.0,training_resp,,203.47750089736653,4.199832792568486,3.0,,left,gold,0.0,5.0,40.0,1.0,5.0,30.0,15.0,5.0,15.0,30.0,30.0,60.0,RR,9.0,1.0,right,2020_Feb_28_1107,habits_v_MRI,59.950002629166114,
9.0,1.0,resp2,stim/left_resp_img.png,"[0.5, 0]",left,stim/gold_coin.png,silver,,,,,training,,,gold,val,,,,,0.0,0.0,0.0,0.0,1.0,1.0,3.0,1.0,,,,,,,,,0.0,training_resp,,204.9615751395468,5.683600888645742,3.0,,left,gold,0.0,5.0,40.0,1.0,5.0,30.0,15.0,5.0,15.0,30.0,30.0,60.0,RR,9.0,1.0,right,2020_Feb_28_1107,habits_v_MRI,59.950002629166114,
9.0,1.0,resp2,stim/left_resp_img.png,"[0.5, 0]",left,stim/gold_coin.png,silver,,,,,training,,,gold,val,,,,,0.0,0.0,0.0,0.0,1.0,1.0,3.0,1.0,,,,,,,,,0.0,training_resp,,206.46188011270715,7.184130779525731,3.0,,left,gold,0.0,5.0,40.0,1.0,5.0,30.0,15.0,5.0,15.0,30.0,30.0,60.0,RR,9.0,1.0,right,2020_Feb_28_1107,habits_v_MRI,59.950002629166114,
9.0,1.0,resp2,stim/left_resp_img.png,"[0.5, 0]",left,stim/gold_coin.png,silver,,,,,training,,,gold,val,,,,,0.0,0.0,0.0,0.0,1.0,1.0,3.0,1.0,,,,,,,,,0.0,training_resp,,208.2455878593028,8.96794966532616,3.0,,left,gold,0.0,5.0,40.0,1.0,5.0,30.0,15.0,5.0,15.0,30.0,30.0,60.0,RR,9.0,1.0,right,2020_Feb_28_1107,habits_v_MRI,59.950002629166114,
9.0,1.0,resp2,stim/left_resp_img.png,"[0.5, 0]",left,stim/gold_coin.png,silver,,,,,training,,,gold,val,,,,,0.0,0.0,0.0,0.0,1.0,1.0,3.0,1.0,,,,,,,,,0.0,training_resp,,213.3306343207369,14.052941876812838,3.0,,left,gold,0.0,5.0,40.0,1.0,5.0,30.0,15.0,5.0,15.0,30.0,30.0,60.0,RR,9.0,1.0,right,2020_Feb_28_1107,habits_v_MRI,59.950002629166114,
9.0,1.0,resp2,stim/left_resp_img.png,"[0.5, 0]",left,stim/gold_coin.png,silver,,,,,training,,,gold,val,,,,,0.0,0.0,0.0,0.0,1.0,1.0,3.0,1.0,,,,,,,,,0.0,training_resp,,215.1313745258376,15.853618448076304,3.0,,left,gold,0.0,5.0,40.0,1.0,5.0,30.0,15.0,5.0,15.0,30.0,30.0,60.0,RR,9.0,1.0,right,2020_Feb_28_1107,habits_v_MRI,59.950002629166114,
9.0,1.0,resp2,stim/left_resp_img.png,"[0.5, 0]",left,stim/gold_coin.png,silver,,,,,training,,,gold,val,,,,,0.0,0.0,0.0,0.0,1.0,1.0,3.0,1.0,,,,,,,,,0.0,training_resp,,217.18163615762023,17.903882425802294,3.0,19.0,left,gold,1.0,5.0,40.0,1.0,5.0,30.0,15.0,5.0,15.0,30.0,30.0,60.0,RR,9.0,1.0,right,2020_Feb_28_1107,habits_v_MRI,59.950002629166114,
9.0,1.0,resp2,stim/left_resp_img.png,"[0.5, 0]",left,stim/gold_coin.png,silver,,,,,training,,,gold,val,,,,,0.0,0.0,0.0,0.0,1.0,1.0,3.0,1.0,,,,,,,,,0.0,training_resp,,219.9991786251776,20.721400260867085,3.0,,left,gold,0.0,5.0,40.0,1.0,5.0,30.0,15.0,5.0,15.0,30.0,30.0,60.0,RR,9.0,1.0,right,2020_Feb_28_1107,habits_v_MRI,59.950002629166114,
9.0,1.0,resp2,stim/left_resp_img.png,"[0.5, 0]",left,stim/gold_coin.png,silver,,,,,training,,,gold,val,,,,,0.0,0.0,0.0,0.0,1.0,1.0,3.0,1.0,,,,,,,,,0.0,training_resp,,221.96637934679163,22.688622096029576,3.0,,left,gold,0.0,5.0,40.0,1.0,5.0,30.0,15.0,5.0,15.0,30.0,30.0,60.0,RR,9.0,1.0,right,2020_Feb_28_1107,habits_v_MRI,59.950002629166114,
9.0,1.0,resp2,stim/left_resp_img.png,"[0.5, 0]",left,stim/gold_coin.png,silver,,,,,training,,,gold,val,,,,,0.0,0.0,0.0,0.0,1.0,1.0,3.0,1.0,,,,,,,,,0.0,training_resp,,225.33446408004968,26.056624134653248,3.0,,left,gold,0.0,5.0,40.0,1.0,5.0,30.0,15.0,5.0,15.0,30.0,30.0,60.0,RR,9.0,1.0,right,2020_Feb_28_1107,habits_v_MRI,59.950002629166114,
9.0,1.0,resp2,stim/left_resp_img.png,"[0.5, 0]",left,stim/gold_coin.png,silver,,,,,training,,,gold,val,,,,,0.0,0.0,0.0,0.0,1.0,1.0,3.0,1.0,,,,,,,,,0.0,training_resp,,228.852148125472,29.574322842236143,3.0,,left,gold,0.0,5.0,40.0,1.0,5.0,30.0,15.0,5.0,15.0,30.0,30.0,60.0,RR,9.0,1.0,right,2020_Feb_28_1107,habits_v_MRI,59.950002629166114,
9.0,1.0,resp2,stim/left_resp_img.png,"[0.5, 0]",left,stim/gold_coin.png,silver,,,,,training,,,gold,val,,,,,0.0,0.0,0.0,0.0,1.0,1.0,3.0,1.0,,,,,,,,,0.0,training_resp,,231.01981973741204,31.74203697446501,3.0,,left,gold,0.0,5.0,40.0,1.0,5.0,30.0,15.0,5.0,15.0,30.0,30.0,60.0,RR,9.0,1.0,right,2020_Feb_28_1107,habits_v_MRI,59.950002629166114,
9.0,1.0,resp2,stim/left_resp_img.png,"[0.5, 0]",left,stim/gold_coin.png,silver,,,,,training,,,gold,val,,,,,0.0,0.0,0.0,0.0,1.0,1.0,3.0,1.0,,,,,,,,,0.0,training_resp,,234.0365692160558,34.758803461212665,3.0,,left,gold,0.0,5.0,40.0,1.0,5.0,30.0,15.0,5.0,15.0,30.0,30.0,60.0,RR,9.0,1.0,right,2020_Feb_28_1107,habits_v_MRI,59.950002629166114,
9.0,1.0,resp2,stim/left_resp_img.png,"[0.5, 0]",left,stim/gold_coin.png,silver,,,,,training,,,gold,val,,,,,0.0,0.0,0.0,0.0,1.0,1.0,3.0,1.0,,,,,,,,,0.0,training_resp,,237.00399661483243,37.72627191408537,3.0,,left,gold,0.0,5.0,40.0,1.0,5.0,30.0,15.0,5.0,15.0,30.0,30.0,60.0,RR,9.0,1.0,right,2020_Feb_28_1107,habits_v_MRI,59.950002629166114,
9.0,1.0,resp2,stim/left_resp_img.png,"[0.5, 0]",left,stim/gold_coin.png,silver,,,,,training,,,gold,val,,,,,0.0,0.0,0.0,0.0,1.0,1.0,3.0,1.0,,,,,,,,,0.0,training_resp,,239.5047461450449,40.22702613618458,3.0,,left,gold,0.0,5.0,40.0,1.0,5.0,30.0,15.0,5.0,15.0,30.0,30.0,60.0,RR,9.0,1.0,right,2020_Feb_28_1107,habits_v_MRI,59.950002629166114,
9.0,1.0,resp2,stim/left_resp_img.png,"[0.5, 0]",left,stim/gold_coin.png,silver,,,,,training,,,gold,val,,,,,0.0,0.0,0.0,0.0,1.0,1.0,3.0,1.0,,,,,,,,,0.0,training_resp,,241.07189449336147,41.794144866929855,3.0,,left,gold,0.0,5.0,40.0,1.0,5.0,30.0,15.0,5.0,15.0,30.0,30.0,60.0,RR,9.0,1.0,right,2020_Feb_28_1107,habits_v_MRI,59.950002629166114,
9.0,1.0,resp2,stim/left_resp_img.png,"[0.5, 0]",left,stim/gold_coin.png,silver,,,,,training,,,gold,val,,,,,0.0,0.0,0.0,0.0,1.0,1.0,3.0,1.0,,,,,,,,,0.0,training_resp,,243.6059262739145,44.328201279975474,3.0,,left,gold,0.0,5.0,40.0,1.0,5.0,30.0,15.0,5.0,15.0,30.0,30.0,60.0,RR,9.0,1.0,right,2020_Feb_28_1107,habits_v_MRI,59.950002629166114,
9.0,1.0,resp2,stim/left_resp_img.png,"[0.5, 0]",left,stim/gold_coin.png,silver,,,,,training,,,gold,val,,,,,0.0,0.0,0.0,0.0,1.0,1.0,3.0,1.0,,,,,,,,,0.0,ITI_start,20.0,243.95736944215605,44.6782987540937,,,,,,5.0,40.0,1.0,5.0,30.0,15.0,5.0,15.0,30.0,30.0,60.0,RR,9.0,1.0,right,2020_Feb_28_1107,habits_v_MRI,59.950002629166114,
9.0,0.0,resp1,stim/right_resp_img.png,"[-0.5, 0]",right,stim/silver_coin.png,silver,,,,,training,,,silver,deval,,,,,0.0,0.0,0.0,0.0,2.0,0.0,4.0,0.0,,,,,,,,,0.0,training_period_start,52.5,263.99713706434704,0.0,4.0,20.0,,,,5.0,40.0,1.0,5.0,30.0,15.0,5.0,15.0,30.0,30.0,60.0,RR,9.0,1.0,right,2020_Feb_28_1107,habits_v_MRI,59.950002629166114,
9.0,0.0,resp1,stim/right_resp_img.png,"[-0.5, 0]",right,stim/silver_coin.png,silver,,,,,training,,,silver,deval,,,,,0.0,0.0,0.0,0.0,2.0,0.0,4.0,0.0,,,,,,,,,0.0,training_resp,,266.86259081750177,2.882607614446897,4.0,,right,silver,0.0,5.0,40.0,1.0,5.0,30.0,15.0,5.0,15.0,30.0,30.0,60.0,RR,9.0,1.0,right,2020_Feb_28_1107,habits_v_MRI,59.950002629166114,
9.0,0.0,resp1,stim/right_resp_img.png,"[-0.5, 0]",right,stim/silver_coin.png,silver,,,,,training,,,silver,deval,,,,,0.0,0.0,0.0,0.0,2.0,0.0,4.0,0.0,,,,,,,,,0.0,training_resp,,268.01305021269945,4.033071994781494,4.0,,right,silver,0.0,5.0,40.0,1.0,5.0,30.0,15.0,5.0,15.0,30.0,30.0,60.0,RR,9.0,1.0,right,2020_Feb_28_1107,habits_v_MRI,59.950002629166114,
9.0,0.0,resp1,stim/right_resp_img.png,"[-0.5, 0]",right,stim/silver_coin.png,silver,,,,,training,,,silver,deval,,,,,0.0,0.0,0.0,0.0,2.0,0.0,4.0,0.0,,,,,,,,,0.0,training_resp,,269.5970594721148,5.617076855560299,4.0,,right,silver,0.0,5.0,40.0,1.0,5.0,30.0,15.0,5.0,15.0,30.0,30.0,60.0,RR,9.0,1.0,right,2020_Feb_28_1107,habits_v_MRI,59.950002629166114,
9.0,0.0,resp1,stim/right_resp_img.png,"[-0.5, 0]",right,stim/silver_coin.png,silver,,,,,training,,,silver,deval,,,,,0.0,0.0,0.0,0.0,2.0,0.0,4.0,0.0,,,,,,,,,0.0,training_resp,,271.1641749772243,7.184197052498348,4.0,,right,silver,0.0,5.0,40.0,1.0,5.0,30.0,15.0,5.0,15.0,30.0,30.0,60.0,RR,9.0,1.0,right,2020_Feb_28_1107,habits_v_MRI,59.950002629166114,
9.0,0.0,resp1,stim/right_resp_img.png,"[-0.5, 0]",right,stim/silver_coin.png,silver,,,,,training,,,silver,deval,,,,,0.0,0.0,0.0,0.0,2.0,0.0,4.0,0.0,,,,,,,,,0.0,training_resp,,272.86463531077607,8.884624249592889,4.0,,right,silver,0.0,5.0,40.0,1.0,5.0,30.0,15.0,5.0,15.0,30.0,30.0,60.0,RR,9.0,1.0,right,2020_Feb_28_1107,habits_v_MRI,59.950002629166114,
9.0,0.0,resp1,stim/right_resp_img.png,"[-0.5, 0]",right,stim/silver_coin.png,silver,,,,,training,,,silver,deval,,,,,0.0,0.0,0.0,0.0,2.0,0.0,4.0,0.0,,,,,,,,,0.0,training_resp,,274.59853741904953,10.618572690349538,4.0,,right,silver,0.0,5.0,40.0,1.0,5.0,30.0,15.0,5.0,15.0,30.0,30.0,60.0,RR,9.0,1.0,right,2020_Feb_28_1107,habits_v_MRI,59.950002629166114,
9.0,0.0,resp1,stim/right_resp_img.png,"[-0.5, 0]",right,stim/silver_coin.png,silver,,,,,training,,,silver,deval,,,,,0.0,0.0,0.0,0.0,2.0,0.0,4.0,0.0,,,,,,,,,0.0,training_resp,,276.3490690694307,12.369055955496153,4.0,,right,silver,0.0,5.0,40.0,1.0,5.0,30.0,15.0,5.0,15.0,30.0,30.0,60.0,RR,9.0,1.0,right,2020_Feb_28_1107,habits_v_MRI,59.950002629166114,
9.0,0.0,resp1,stim/right_resp_img.png,"[-0.5, 0]",right,stim/silver_coin.png,silver,,,,,training,,,silver,deval,,,,,0.0,0.0,0.0,0.0,2.0,0.0,4.0,0.0,,,,,,,,,0.0,training_resp,,278.11620826856233,14.136220666812733,4.0,,right,silver,0.0,5.0,40.0,1.0,5.0,30.0,15.0,5.0,15.0,30.0,30.0,60.0,RR,9.0,1.0,right,2020_Feb_28_1107,habits_v_MRI,59.950002629166114,
9.0,0.0,resp1,stim/right_resp_img.png,"[-0.5, 0]",right,stim/silver_coin.png,silver,,,,,training,,,silver,deval,,,,,0.0,0.0,0.0,0.0,2.0,0.0,4.0,0.0,,,,,,,,,0.0,training_resp,,280.16653324093204,16.186570858117193,4.0,,right,silver,0.0,5.0,40.0,1.0,5.0,30.0,15.0,5.0,15.0,30.0,30.0,60.0,RR,9.0,1.0,right,2020_Feb_28_1107,habits_v_MRI,59.950002629166114,
9.0,0.0,resp1,stim/right_resp_img.png,"[-0.5, 0]",right,stim/silver_coin.png,silver,,,,,training,,,silver,deval,,,,,0.0,0.0,0.0,0.0,2.0,0.0,4.0,0.0,,,,,,,,,0.0,training_resp,,282.1671167953755,18.187123328796588,4.0,,right,silver,0.0,5.0,40.0,1.0,5.0,30.0,15.0,5.0,15.0,30.0,30.0,60.0,RR,9.0,1.0,right,2020_Feb_28_1107,habits_v_MRI,59.950002629166114,
9.0,0.0,resp1,stim/right_resp_img.png,"[-0.5, 0]",right,stim/silver_coin.png,silver,,,,,training,,,silver,deval,,,,,0.0,0.0,0.0,0.0,2.0,0.0,4.0,0.0,,,,,,,,,0.0,training_resp,,284.2176443989738,20.237634803983383,4.0,,right,silver,0.0,5.0,40.0,1.0,5.0,30.0,15.0,5.0,15.0,30.0,30.0,60.0,RR,9.0,1.0,right,2020_Feb_28_1107,habits_v_MRI,59.950002629166114,
9.0,0.0,resp1,stim/right_resp_img.png,"[-0.5, 0]",right,stim/silver_coin.png,silver,,,,,training,,,silver,deval,,,,,0.0,0.0,0.0,0.0,2.0,0.0,4.0,0.0,,,,,,,,,0.0,training_resp,,286.6017323062988,22.621775495121256,4.0,,right,silver,0.0,5.0,40.0,1.0,5.0,30.0,15.0,5.0,15.0,30.0,30.0,60.0,RR,9.0,1.0,right,2020_Feb_28_1107,habits_v_MRI,59.950002629166114,
9.0,0.0,resp1,stim/right_resp_img.png,"[-0.5, 0]",right,stim/silver_coin.png,silver,,,,,training,,,silver,deval,,,,,0.0,0.0,0.0,0.0,2.0,0.0,4.0,0.0,,,,,,,,,0.0,training_resp,,288.718949039001,24.73903210897697,4.0,,right,silver,0.0,5.0,40.0,1.0,5.0,30.0,15.0,5.0,15.0,30.0,30.0,60.0,RR,9.0,1.0,right,2020_Feb_28_1107,habits_v_MRI,59.950002629166114,
9.0,0.0,resp1,stim/right_resp_img.png,"[-0.5, 0]",right,stim/silver_coin.png,silver,,,,,training,,,silver,deval,,,,,0.0,0.0,0.0,0.0,2.0,0.0,4.0,0.0,,,,,,,,,0.0,training_resp,,289.9692677946296,25.989361714571714,4.0,,right,silver,0.0,5.0,40.0,1.0,5.0,30.0,15.0,5.0,15.0,30.0,30.0,60.0,RR,9.0,1.0,right,2020_Feb_28_1107,habits_v_MRI,59.950002629166114,
9.0,0.0,resp1,stim/right_resp_img.png,"[-0.5, 0]",right,stim/silver_coin.png,silver,,,,,training,,,silver,deval,,,,,0.0,0.0,0.0,0.0,2.0,0.0,4.0,0.0,,,,,,,,,0.0,training_resp,,291.6864245297038,27.706509065872524,4.0,,right,silver,0.0,5.0,40.0,1.0,5.0,30.0,15.0,5.0,15.0,30.0,30.0,60.0,RR,9.0,1.0,right,2020_Feb_28_1107,habits_v_MRI,59.950002629166114,
9.0,0.0,resp1,stim/right_resp_img.png,"[-0.5, 0]",right,stim/silver_coin.png,silver,,,,,training,,,silver,deval,,,,,0.0,0.0,0.0,0.0,2.0,0.0,4.0,0.0,,,,,,,,,0.0,training_resp,,293.4869709009072,29.507030218141157,4.0,,right,silver,0.0,5.0,40.0,1.0,5.0,30.0,15.0,5.0,15.0,30.0,30.0,60.0,RR,9.0,1.0,right,2020_Feb_28_1107,habits_v_MRI,59.950002629166114,
9.0,0.0,resp1,stim/right_resp_img.png,"[-0.5, 0]",right,stim/silver_coin.png,silver,,,,,training,,,silver,deval,,,,,0.0,0.0,0.0,0.0,2.0,0.0,4.0,0.0,,,,,,,,,0.0,training_resp,,295.23749697959283,31.257580342818983,4.0,,right,silver,0.0,5.0,40.0,1.0,5.0,30.0,15.0,5.0,15.0,30.0,30.0,60.0,RR,9.0,1.0,right,2020_Feb_28_1107,habits_v_MRI,59.950002629166114,
9.0,0.0,resp1,stim/right_resp_img.png,"[-0.5, 0]",right,stim/silver_coin.png,silver,,,,,training,,,silver,deval,,,,,0.0,0.0,0.0,0.0,2.0,0.0,4.0,0.0,,,,,,,,,0.0,training_resp,,297.13801150454674,33.15809692046605,4.0,,right,silver,0.0,5.0,40.0,1.0,5.0,30.0,15.0,5.0,15.0,30.0,30.0,60.0,RR,9.0,1.0,right,2020_Feb_28_1107,habits_v_MRI,59.950002629166114,
9.0,0.0,resp1,stim/right_resp_img.png,"[-0.5, 0]",right,stim/silver_coin.png,silver,,,,,training,,,silver,deval,,,,,0.0,0.0,0.0,0.0,2.0,0.0,4.0,0.0,,,,,,,,,0.0,training_resp,,298.9717873422196,34.99185545678483,4.0,,right,silver,0.0,5.0,40.0,1.0,5.0,30.0,15.0,5.0,15.0,30.0,30.0,60.0,RR,9.0,1.0,right,2020_Feb_28_1107,habits_v_MRI,59.950002629166114,
9.0,0.0,resp1,stim/right_resp_img.png,"[-0.5, 0]",right,stim/silver_coin.png,silver,,,,,training,,,silver,deval,,,,,0.0,0.0,0.0,0.0,2.0,0.0,4.0,0.0,,,,,,,,,0.0,training_resp,,300.60567584401,36.62576477887342,4.0,13.0,right,silver,1.0,5.0,40.0,1.0,5.0,30.0,15.0,5.0,15.0,30.0,30.0,60.0,RR,9.0,1.0,right,2020_Feb_28_1107,habits_v_MRI,59.950002629166114,
9.0,0.0,resp1,stim/right_resp_img.png,"[-0.5, 0]",right,stim/silver_coin.png,silver,,,,,training,,,silver,deval,,,,,0.0,0.0,0.0,0.0,2.0,0.0,4.0,0.0,,,,,,,,,0.0,training_resp,,302.256161337893,38.27623238484375,4.0,,right,silver,0.0,5.0,40.0,1.0,5.0,30.0,15.0,5.0,15.0,30.0,30.0,60.0,RR,9.0,1.0,right,2020_Feb_28_1107,habits_v_MRI,59.950002629166114,
9.0,0.0,resp1,stim/right_resp_img.png,"[-0.5, 0]",right,stim/silver_coin.png,silver,,,,,training,,,silver,deval,,,,,0.0,0.0,0.0,0.0,2.0,0.0,4.0,0.0,,,,,,,,,0.0,training_resp,,303.47318112826906,39.49323634011671,4.0,,right,silver,0.0,5.0,40.0,1.0,5.0,30.0,15.0,5.0,15.0,30.0,30.0,60.0,RR,9.0,1.0,right,2020_Feb_28_1107,habits_v_MRI,59.950002629166114,
9.0,0.0,resp1,stim/right_resp_img.png,"[-0.5, 0]",right,stim/silver_coin.png,silver,,,,,training,,,silver,deval,,,,,0.0,0.0,0.0,0.0,2.0,0.0,4.0,0.0,,,,,,,,,0.0,training_resp,,304.52344569249544,40.54351351381047,4.0,,right,silver,0.0,5.0,40.0,1.0,5.0,30.0,15.0,5.0,15.0,30.0,30.0,60.0,RR,9.0,1.0,right,2020_Feb_28_1107,habits_v_MRI,59.950002629166114,
9.0,0.0,resp1,stim/right_resp_img.png,"[-0.5, 0]",right,stim/silver_coin.png,silver,,,,,training,,,silver,deval,,,,,0.0,0.0,0.0,0.0,2.0,0.0,4.0,0.0,,,,,,,,,0.0,training_resp,,305.60711361659924,41.62716912169708,4.0,,right,silver,0.0,5.0,40.0,1.0,5.0,30.0,15.0,5.0,15.0,30.0,30.0,60.0,RR,9.0,1.0,right,2020_Feb_28_1107,habits_v_MRI,59.950002629166114,
9.0,0.0,resp1,stim/right_resp_img.png,"[-0.5, 0]",right,stim/silver_coin.png,silver,,,,,training,,,silver,deval,,,,,0.0,0.0,0.0,0.0,2.0,0.0,4.0,0.0,,,,,,,,,0.0,training_resp,,307.1241566318786,43.14421096397564,4.0,,right,silver,0.0,5.0,40.0,1.0,5.0,30.0,15.0,5.0,15.0,30.0,30.0,60.0,RR,9.0,1.0,right,2020_Feb_28_1107,habits_v_MRI,59.950002629166114,
9.0,0.0,resp1,stim/right_resp_img.png,"[-0.5, 0]",right,stim/silver_coin.png,silver,,,,,training,,,silver,deval,,,,,0.0,0.0,0.0,0.0,2.0,0.0,4.0,0.0,,,,,,,,,0.0,training_resp,,308.2246092238347,44.24464713427005,4.0,,right,silver,0.0,5.0,40.0,1.0,5.0,30.0,15.0,5.0,15.0,30.0,30.0,60.0,RR,9.0,1.0,right,2020_Feb_28_1107,habits_v_MRI,59.950002629166114,
9.0,0.0,resp1,stim/right_resp_img.png,"[-0.5, 0]",right,stim/silver_coin.png,silver,,,,,training,,,silver,deval,,,,,0.0,0.0,0.0,0.0,2.0,0.0,4.0,0.0,,,,,,,,,0.0,training_resp,,309.291603326099,45.31165179330856,4.0,,right,silver,0.0,5.0,40.0,1.0,5.0,30.0,15.0,5.0,15.0,30.0,30.0,60.0,RR,9.0,1.0,right,2020_Feb_28_1107,habits_v_MRI,59.950002629166114,
9.0,0.0,resp1,stim/right_resp_img.png,"[-0.5, 0]",right,stim/silver_coin.png,silver,,,,,training,,,silver,deval,,,,,0.0,0.0,0.0,0.0,2.0,0.0,4.0,0.0,,,,,,,,,0.0,training_resp,,310.9254170508357,46.94542622345034,4.0,,right,silver,0.0,5.0,40.0,1.0,5.0,30.0,15.0,5.0,15.0,30.0,30.0,60.0,RR,9.0,1.0,right,2020_Feb_28_1107,habits_v_MRI,59.950002629166114,
9.0,0.0,resp1,stim/right_resp_img.png,"[-0.5, 0]",right,stim/silver_coin.png,silver,,,,,training,,,silver,deval,,,,,0.0,0.0,0.0,0.0,2.0,0.0,4.0,0.0,,,,,,,,,0.0,training_resp,,312.5090717789717,48.529116434045136,4.0,,right,silver,0.0,5.0,40.0,1.0,5.0,30.0,15.0,5.0,15.0,30.0,30.0,60.0,RR,9.0,1.0,right,2020_Feb_28_1107,habits_v_MRI,59.950002629166114,
9.0,0.0,resp1,stim/right_resp_img.png,"[-0.5, 0]",right,stim/silver_coin.png,silver,,,,,training,,,silver,deval,,,,,0.0,0.0,0.0,0.0,2.0,0.0,4.0,0.0,,,,,,,,,0.0,training_resp,,314.17634252714925,50.19636489567347,4.0,,right,silver,0.0,5.0,40.0,1.0,5.0,30.0,15.0,5.0,15.0,30.0,30.0,60.0,RR,9.0,1.0,right,2020_Feb_28_1107,habits_v_MRI,59.950002629166114,
9.0,0.0,resp1,stim/right_resp_img.png,"[-0.5, 0]",right,stim/silver_coin.png,silver,,,,,training,,,silver,deval,,,,,0.0,0.0,0.0,0.0,2.0,0.0,4.0,0.0,,,,,,,,,0.0,training_resp,,315.3933347526472,51.41334421851207,4.0,,right,silver,0.0,5.0,40.0,1.0,5.0,30.0,15.0,5.0,15.0,30.0,30.0,60.0,RR,9.0,1.0,right,2020_Feb_28_1107,habits_v_MRI,59.950002629166114,
9.0,0.0,resp1,stim/right_resp_img.png,"[-0.5, 0]",right,stim/silver_coin.png,silver,,,,,training,,,silver,deval,,,,,0.0,0.0,0.0,0.0,2.0,0.0,4.0,0.0,,,,,,,,,0.0,ITI_start,30.0,316.1613428320852,52.18022389721591,,,,,,5.0,40.0,1.0,5.0,30.0,15.0,5.0,15.0,30.0,30.0,60.0,RR,9.0,1.0,right,2020_Feb_28_1107,habits_v_MRI,59.950002629166114,
9.0,1.0,resp2,stim/left_resp_img.png,"[0.5, 0]",left,stim/gold_coin.png,silver,,,,,training,,,gold,val,,,,,0.0,0.0,0.0,0.0,2.0,1.0,5.0,1.0,,,,,,,,,0.0,training_period_start,52.5,346.1847366205184,0.0,5.0,13.0,,,,5.0,40.0,1.0,5.0,30.0,15.0,5.0,15.0,30.0,30.0,60.0,RR,9.0,1.0,right,2020_Feb_28_1107,habits_v_MRI,59.950002629166114,
9.0,1.0,resp2,stim/left_resp_img.png,"[0.5, 0]",left,stim/gold_coin.png,silver,,,,,training,,,gold,val,,,,,0.0,0.0,0.0,0.0,2.0,1.0,5.0,1.0,,,,,,,,,0.0,training_resp,,349.36905067716725,3.199279442196712,5.0,,left,gold,0.0,5.0,40.0,1.0,5.0,30.0,15.0,5.0,15.0,30.0,30.0,60.0,RR,9.0,1.0,right,2020_Feb_28_1107,habits_v_MRI,59.950002629166114,
9.0,1.0,resp2,stim/left_resp_img.png,"[0.5, 0]",left,stim/gold_coin.png,silver,,,,,training,,,gold,val,,,,,0.0,0.0,0.0,0.0,2.0,1.0,5.0,1.0,,,,,,,,,0.0,training_resp,,351.1362582020229,4.966556172526907,5.0,,left,gold,0.0,5.0,40.0,1.0,5.0,30.0,15.0,5.0,15.0,30.0,30.0,60.0,RR,9.0,1.0,right,2020_Feb_28_1107,habits_v_MRI,59.950002629166114,
9.0,1.0,resp2,stim/left_resp_img.png,"[0.5, 0]",left,stim/gold_coin.png,silver,,,,,training,,,gold,val,,,,,0.0,0.0,0.0,0.0,2.0,1.0,5.0,1.0,,,,,,,,,0.0,training_resp,,352.78693840949563,6.617204416485038,5.0,,left,gold,0.0,5.0,40.0,1.0,5.0,30.0,15.0,5.0,15.0,30.0,30.0,60.0,RR,9.0,1.0,right,2020_Feb_28_1107,habits_v_MRI,59.950002629166114,
9.0,1.0,resp2,stim/left_resp_img.png,"[0.5, 0]",left,stim/gold_coin.png,silver,,,,,training,,,gold,val,,,,,0.0,0.0,0.0,0.0,2.0,1.0,5.0,1.0,,,,,,,,,0.0,training_resp,,354.4707994050696,8.301058080920484,5.0,,left,gold,0.0,5.0,40.0,1.0,5.0,30.0,15.0,5.0,15.0,30.0,30.0,60.0,RR,9.0,1.0,right,2020_Feb_28_1107,habits_v_MRI,59.950002629166114,
9.0,1.0,resp2,stim/left_resp_img.png,"[0.5, 0]",left,stim/gold_coin.png,silver,,,,,training,,,gold,val,,,,,0.0,0.0,0.0,0.0,2.0,1.0,5.0,1.0,,,,,,,,,0.0,training_resp,,356.6715139807202,10.501752129523084,5.0,,left,gold,0.0,5.0,40.0,1.0,5.0,30.0,15.0,5.0,15.0,30.0,30.0,60.0,RR,9.0,1.0,right,2020_Feb_28_1107,habits_v_MRI,59.950002629166114,
9.0,1.0,resp2,stim/left_resp_img.png,"[0.5, 0]",left,stim/gold_coin.png,silver,,,,,training,,,gold,val,,,,,0.0,0.0,0.0,0.0,2.0,1.0,5.0,1.0,,,,,,,,,0.0,training_resp,,358.38871470233425,12.21897660382092,5.0,,left,gold,0.0,5.0,40.0,1.0,5.0,30.0,15.0,5.0,15.0,30.0,30.0,60.0,RR,9.0,1.0,right,2020_Feb_28_1107,habits_v_MRI,59.950002629166114,
9.0,1.0,resp2,stim/left_resp_img.png,"[0.5, 0]",left,stim/gold_coin.png,silver,,,,,training,,,gold,val,,,,,0.0,0.0,0.0,0.0,2.0,1.0,5.0,1.0,,,,,,,,,0.0,training_resp,,360.4225746422308,14.25283361133188,5.0,,left,gold,0.0,5.0,40.0,1.0,5.0,30.0,15.0,5.0,15.0,30.0,30.0,60.0,RR,9.0,1.0,right,2020_Feb_28_1107,habits_v_MRI,59.950002629166114,
9.0,1.0,resp2,stim/left_resp_img.png,"[0.5, 0]",left,stim/gold_coin.png,silver,,,,,training,,,gold,val,,,,,0.0,0.0,0.0,0.0,2.0,1.0,5.0,1.0,,,,,,,,,0.0,training_resp,,362.3064528804971,16.13670275907498,5.0,,left,gold,0.0,5.0,40.0,1.0,5.0,30.0,15.0,5.0,15.0,30.0,30.0,60.0,RR,9.0,1.0,right,2020_Feb_28_1107,habits_v_MRI,59.950002629166114,
9.0,1.0,resp2,stim/left_resp_img.png,"[0.5, 0]",left,stim/gold_coin.png,silver,,,,,training,,,gold,val,,,,,0.0,0.0,0.0,0.0,2.0,1.0,5.0,1.0,,,,,,,,,0.0,training_resp,,364.2903285968932,18.120576129469555,5.0,,left,gold,0.0,5.0,40.0,1.0,5.0,30.0,15.0,5.0,15.0,30.0,30.0,60.0,RR,9.0,1.0,right,2020_Feb_28_1107,habits_v_MRI,59.950002629166114,
9.0,1.0,resp2,stim/left_resp_img.png,"[0.5, 0]",left,stim/gold_coin.png,silver,,,,,training,,,gold,val,,,,,0.0,0.0,0.0,0.0,2.0,1.0,5.0,1.0,,,,,,,,,0.0,training_resp,,366.4741555762012,20.30441513180267,5.0,,left,gold,0.0,5.0,40.0,1.0,5.0,30.0,15.0,5.0,15.0,30.0,30.0,60.0,RR,9.0,1.0,right,2020_Feb_28_1107,habits_v_MRI,59.950002629166114,
9.0,1.0,resp2,stim/left_resp_img.png,"[0.5, 0]",left,stim/gold_coin.png,silver,,,,,training,,,gold,val,,,,,0.0,0.0,0.0,0.0,2.0,1.0,5.0,1.0,,,,,,,,,0.0,training_resp,,369.4750842782087,23.30535497702658,5.0,,left,gold,0.0,5.0,40.0,1.0,5.0,30.0,15.0,5.0,15.0,30.0,30.0,60.0,RR,9.0,1.0,right,2020_Feb_28_1107,habits_v_MRI,59.950002629166114,
9.0,1.0,resp2,stim/left_resp_img.png,"[0.5, 0]",left,stim/gold_coin.png,silver,,,,,training,,,gold,val,,,,,0.0,0.0,0.0,0.0,2.0,1.0,5.0,1.0,,,,,,,,,0.0,training_resp,,371.726392730372,25.556441737222485,5.0,,left,gold,0.0,5.0,40.0,1.0,5.0,30.0,15.0,5.0,15.0,30.0,30.0,60.0,RR,9.0,1.0,right,2020_Feb_28_1107,habits_v_MRI,59.950002629166114,
9.0,1.0,resp2,stim/left_resp_img.png,"[0.5, 0]",left,stim/gold_coin.png,silver,,,,,training,,,gold,val,,,,,0.0,0.0,0.0,0.0,2.0,1.0,5.0,1.0,,,,,,,,,0.0,training_resp,,374.7602588284062,28.59032132441644,5.0,10.0,left,gold,1.0,5.0,40.0,1.0,5.0,30.0,15.0,5.0,15.0,30.0,30.0,60.0,RR,9.0,1.0,right,2020_Feb_28_1107,habits_v_MRI,59.950002629166114,
9.0,1.0,resp2,stim/left_resp_img.png,"[0.5, 0]",left,stim/gold_coin.png,silver,,,,,training,,,gold,val,,,,,0.0,0.0,0.0,0.0,2.0,1.0,5.0,1.0,,,,,,,,,0.0,training_resp,,377.6279784736107,31.45787616679445,5.0,,left,gold,0.0,5.0,40.0,1.0,5.0,30.0,15.0,5.0,15.0,30.0,30.0,60.0,RR,9.0,1.0,right,2020_Feb_28_1107,habits_v_MRI,59.950002629166114,
9.0,1.0,resp2,stim/left_resp_img.png,"[0.5, 0]",left,stim/gold_coin.png,silver,,,,,training,,,gold,val,,,,,0.0,0.0,0.0,0.0,2.0,1.0,5.0,1.0,,,,,,,,,0.0,training_resp,,379.6619516054634,33.491742264828645,5.0,,left,gold,0.0,5.0,40.0,1.0,5.0,30.0,15.0,5.0,15.0,30.0,30.0,60.0,RR,9.0,1.0,right,2020_Feb_28_1107,habits_v_MRI,59.950002629166114,
9.0,1.0,resp2,stim/left_resp_img.png,"[0.5, 0]",left,stim/gold_coin.png,silver,,,,,training,,,gold,val,,,,,0.0,0.0,0.0,0.0,2.0,1.0,5.0,1.0,,,,,,,,,0.0,training_resp,,381.7790058813407,35.60900562320603,5.0,,left,gold,0.0,5.0,40.0,1.0,5.0,30.0,15.0,5.0,15.0,30.0,30.0,60.0,RR,9.0,1.0,right,2020_Feb_28_1107,habits_v_MRI,59.950002629166114,
9.0,1.0,resp2,stim/left_resp_img.png,"[0.5, 0]",left,stim/gold_coin.png,silver,,,,,training,,,gold,val,,,,,0.0,0.0,0.0,0.0,2.0,1.0,5.0,1.0,,,,,,,,,0.0,training_resp,,384.1801095323172,38.00978524022503,5.0,,left,gold,0.0,5.0,40.0,1.0,5.0,30.0,15.0,5.0,15.0,30.0,30.0,60.0,RR,9.0,1.0,right,2020_Feb_28_1107,habits_v_MRI,59.950002629166114,
9.0,1.0,resp2,stim/left_resp_img.png,"[0.5, 0]",left,stim/gold_coin.png,silver,,,,,training,,,gold,val,,,,,0.0,0.0,0.0,0.0,2.0,1.0,5.0,1.0,,,,,,,,,0.0,training_resp,,386.3973712485749,40.227014699659776,5.0,,left,gold,0.0,5.0,40.0,1.0,5.0,30.0,15.0,5.0,15.0,30.0,30.0,60.0,RR,9.0,1.0,right,2020_Feb_28_1107,habits_v_MRI,59.950002629166114,
9.0,1.0,resp2,stim/left_resp_img.png,"[0.5, 0]",left,stim/gold_coin.png,silver,,,,,training,,,gold,val,,,,,0.0,0.0,0.0,0.0,2.0,1.0,5.0,1.0,,,,,,,,,0.0,training_resp,,389.0811240373296,42.91111468867166,5.0,,left,gold,0.0,5.0,40.0,1.0,5.0,30.0,15.0,5.0,15.0,30.0,30.0,60.0,RR,9.0,1.0,right,2020_Feb_28_1107,habits_v_MRI,59.950002629166114,
9.0,1.0,resp2,stim/left_resp_img.png,"[0.5, 0]",left,stim/gold_coin.png,silver,,,,,training,,,gold,val,,,,,0.0,0.0,0.0,0.0,2.0,1.0,5.0,1.0,,,,,,,,,0.0,training_resp,,391.5485464509693,45.37854414014146,5.0,,left,gold,0.0,5.0,40.0,1.0,5.0,30.0,15.0,5.0,15.0,30.0,30.0,60.0,RR,9.0,1.0,right,2020_Feb_28_1107,habits_v_MRI,59.950002629166114,
9.0,1.0,resp2,stim/left_resp_img.png,"[0.5, 0]",left,stim/gold_coin.png,silver,,,,,training,,,gold,val,,,,,0.0,0.0,0.0,0.0,2.0,1.0,5.0,1.0,,,,,,,,,0.0,training_resp,,395.13287417276297,48.96287068899255,5.0,,left,gold,0.0,5.0,40.0,1.0,5.0,30.0,15.0,5.0,15.0,30.0,30.0,60.0,RR,9.0,1.0,right,2020_Feb_28_1107,habits_v_MRI,59.950002629166114,
9.0,1.0,resp2,stim/left_resp_img.png,"[0.5, 0]",left,stim/gold_coin.png,silver,,,,,training,,,gold,val,,,,,0.0,0.0,0.0,0.0,2.0,1.0,5.0,1.0,,,,,,,,,0.0,ITI_start,23.333333333333336,398.3517396373791,52.18053326901281,,,,,,5.0,40.0,1.0,5.0,30.0,15.0,5.0,15.0,30.0,30.0,60.0,RR,9.0,1.0,right,2020_Feb_28_1107,habits_v_MRI,59.950002629166114,
9.0,0.0,resp1,stim/right_resp_img.png,"[-0.5, 0]",right,stim/silver_coin.png,silver,,,,,training,,,silver,deval,,,,,0.0,0.0,0.0,0.0,3.0,0.0,6.0,0.0,,,,,,,,,0.0,training_period_start,30.0,421.7125143982703,0.0,6.0,16.0,,,,5.0,40.0,1.0,5.0,30.0,15.0,5.0,15.0,30.0,30.0,60.0,RR,9.0,1.0,right,2020_Feb_28_1107,habits_v_MRI,59.950002629166114,
9.0,0.0,resp1,stim/right_resp_img.png,"[-0.5, 0]",right,stim/silver_coin.png,silver,,,,,training,,,silver,deval,,,,,0.0,0.0,0.0,0.0,3.0,0.0,6.0,0.0,,,,,,,,,0.0,training_resp,,426.05847713991534,4.366165161714889,6.0,,right,silver,0.0,5.0,40.0,1.0,5.0,30.0,15.0,5.0,15.0,30.0,30.0,60.0,RR,9.0,1.0,right,2020_Feb_28_1107,habits_v_MRI,59.950002629166114,
9.0,0.0,resp1,stim/right_resp_img.png,"[-0.5, 0]",right,stim/silver_coin.png,silver,,,,,training,,,silver,deval,,,,,0.0,0.0,0.0,0.0,3.0,0.0,6.0,0.0,,,,,,,,,0.0,training_resp,,429.89285471313633,8.20055505115306,6.0,,right,silver,0.0,5.0,40.0,1.0,5.0,30.0,15.0,5.0,15.0,30.0,30.0,60.0,RR,9.0,1.0,right,2020_Feb_28_1107,habits_v_MRI,59.950002629166114,
9.0,0.0,resp1,stim/right_resp_img.png,"[-0.5, 0]",right,stim/silver_coin.png,silver,,,,,training,,,silver,deval,,,,,0.0,0.0,0.0,0.0,3.0,0.0,6.0,0.0,,,,,,,,,0.0,training_resp,,432.74377385538537,11.051469208265187,6.0,,right,silver,0.0,5.0,40.0,1.0,5.0,30.0,15.0,5.0,15.0,30.0,30.0,60.0,RR,9.0,1.0,right,2020_Feb_28_1107,habits_v_MRI,59.950002629166114,
9.0,0.0,resp1,stim/right_resp_img.png,"[-0.5, 0]",right,stim/silver_coin.png,silver,,,,,training,,,silver,deval,,,,,0.0,0.0,0.0,0.0,3.0,0.0,6.0,0.0,,,,,,,,,0.0,training_resp,,435.9613947948092,14.26897959492635,6.0,,right,silver,0.0,5.0,40.0,1.0,5.0,30.0,15.0,5.0,15.0,30.0,30.0,60.0,RR,9.0,1.0,right,2020_Feb_28_1107,habits_v_MRI,59.950002629166114,
9.0,0.0,resp1,stim/right_resp_img.png,"[-0.5, 0]",right,stim/silver_coin.png,silver,,,,,training,,,silver,deval,,,,,0.0,0.0,0.0,0.0,3.0,0.0,6.0,0.0,,,,,,,,,0.0,training_resp,,438.5787769168383,16.88647285621846,6.0,,right,silver,0.0,5.0,40.0,1.0,5.0,30.0,15.0,5.0,15.0,30.0,30.0,60.0,RR,9.0,1.0,right,2020_Feb_28_1107,habits_v_MRI,59.950002629166114,
9.0,0.0,resp1,stim/right_resp_img.png,"[-0.5, 0]",right,stim/silver_coin.png,silver,,,,,training,,,silver,deval,,,,,0.0,0.0,0.0,0.0,3.0,0.0,6.0,0.0,,,,,,,,,0.0,training_resp,,441.512938486936,19.820632666815072,6.0,,right,silver,0.0,5.0,40.0,1.0,5.0,30.0,15.0,5.0,15.0,30.0,30.0,60.0,RR,9.0,1.0,right,2020_Feb_28_1107,habits_v_MRI,59.950002629166114,
9.0,0.0,resp1,stim/right_resp_img.png,"[-0.5, 0]",right,stim/silver_coin.png,silver,,,,,training,,,silver,deval,,,,,0.0,0.0,0.0,0.0,3.0,0.0,6.0,0.0,,,,,,,,,0.0,training_resp,,444.0469661621028,22.35465740953805,6.0,,right,silver,0.0,5.0,40.0,1.0,5.0,30.0,15.0,5.0,15.0,30.0,30.0,60.0,RR,9.0,1.0,right,2020_Feb_28_1107,habits_v_MRI,59.950002629166114,
9.0,0.0,resp1,stim/right_resp_img.png,"[-0.5, 0]",right,stim/silver_coin.png,silver,,,,,training,,,silver,deval,,,,,0.0,0.0,0.0,0.0,3.0,0.0,6.0,0.0,,,,,,,,,0.0,training_resp,,446.78124890034087,25.088880032941237,6.0,,right,silver,0.0,5.0,40.0,1.0,5.0,30.0,15.0,5.0,15.0,30.0,30.0,60.0,RR,9.0,1.0,right,2020_Feb_28_1107,habits_v_MRI,59.950002629166114,
9.0,0.0,resp1,stim/right_resp_img.png,"[-0.5, 0]",right,stim/silver_coin.png,silver,,,,,training,,,silver,deval,,,,,0.0,0.0,0.0,0.0,3.0,0.0,6.0,0.0,,,,,,,,,0.0,training_resp,,449.06515575922094,27.372810937697068,6.0,,right,silver,0.0,5.0,40.0,1.0,5.0,30.0,15.0,5.0,15.0,30.0,30.0,60.0,RR,9.0,1.0,right,2020_Feb_28_1107,habits_v_MRI,59.950002629166114,
9.0,0.0,resp1,stim/right_resp_img.png,"[-0.5, 0]",right,stim/silver_coin.png,silver,,,,,training,,,silver,deval,,,,,0.0,0.0,0.0,0.0,3.0,0.0,6.0,0.0,,,,,,,,,0.0,training_resp,,450.88231789000565,29.18998215906322,6.0,,right,silver,0.0,5.0,40.0,1.0,5.0,30.0,15.0,5.0,15.0,30.0,30.0,60.0,RR,9.0,1.0,right,2020_Feb_28_1107,habits_v_MRI,59.950002629166114,
9.0,0.0,resp1,stim/right_resp_img.png,"[-0.5, 0]",right,stim/silver_coin.png,silver,,,,,training,,,silver,deval,,,,,0.0,0.0,0.0,0.0,3.0,0.0,6.0,0.0,,,,,,,,,0.0,ITI_start,15.0,451.36697949876543,29.67345965083223,,,,,,5.0,40.0,1.0,5.0,30.0,15.0,5.0,15.0,30.0,30.0,60.0,RR,9.0,1.0,right,2020_Feb_28_1107,habits_v_MRI,59.950002629166114,
9.0,1.0,resp2,stim/left_resp_img.png,"[0.5, 0]",left,stim/gold_coin.png,silver,,,,,training,,,gold,val,,,,,0.0,0.0,0.0,0.0,3.0,1.0,7.0,1.0,,,,,,,,,0.0,training_period_start,60.0,466.40885788720334,0.0,7.0,13.0,,,,5.0,40.0,1.0,5.0,30.0,15.0,5.0,15.0,30.0,30.0,60.0,RR,9.0,1.0,right,2020_Feb_28_1107,habits_v_MRI,59.950002629166114,
9.0,1.0,resp2,stim/left_resp_img.png,"[0.5, 0]",left,stim/gold_coin.png,silver,,,,,training,,,gold,val,,,,,0.0,0.0,0.0,0.0,3.0,1.0,7.0,1.0,,,,,,,,,0.0,training_resp,,469.0370700758067,2.6487040399224497,7.0,,left,gold,0.0,5.0,40.0,1.0,5.0,30.0,15.0,5.0,15.0,30.0,30.0,60.0,RR,9.0,1.0,right,2020_Feb_28_1107,habits_v_MRI,59.950002629166114,
9.0,1.0,resp2,stim/left_resp_img.png,"[0.5, 0]",left,stim/gold_coin.png,silver,,,,,training,,,gold,val,,,,,0.0,0.0,0.0,0.0,3.0,1.0,7.0,1.0,,,,,,,,,0.0,training_resp,,471.35478760965634,4.966242988535669,7.0,,left,gold,0.0,5.0,40.0,1.0,5.0,30.0,15.0,5.0,15.0,30.0,30.0,60.0,RR,9.0,1.0,right,2020_Feb_28_1107,habits_v_MRI,59.950002629166114,
9.0,1.0,resp2,stim/left_resp_img.png,"[0.5, 0]",left,stim/gold_coin.png,silver,,,,,training,,,gold,val,,,,,0.0,0.0,0.0,0.0,3.0,1.0,7.0,1.0,,,,,,,,,0.0,training_resp,,474.0055616550381,7.617011462280061,7.0,,left,gold,0.0,5.0,40.0,1.0,5.0,30.0,15.0,5.0,15.0,30.0,30.0,60.0,RR,9.0,1.0,right,2020_Feb_28_1107,habits_v_MRI,59.950002629166114,
9.0,1.0,resp2,stim/left_resp_img.png,"[0.5, 0]",left,stim/gold_coin.png,silver,,,,,training,,,gold,val,,,,,0.0,0.0,0.0,0.0,3.0,1.0,7.0,1.0,,,,,,,,,0.0,training_resp,,476.3732912705164,9.984485076216515,7.0,,left,gold,0.0,5.0,40.0,1.0,5.0,30.0,15.0,5.0,15.0,30.0,30.0,60.0,RR,9.0,1.0,right,2020_Feb_28_1107,habits_v_MRI,59.950002629166114,
9.0,1.0,resp2,stim/left_resp_img.png,"[0.5, 0]",left,stim/gold_coin.png,silver,,,,,training,,,gold,val,,,,,0.0,0.0,0.0,0.0,3.0,1.0,7.0,1.0,,,,,,,,,0.0,training_resp,,478.9736954772961,12.58512475749012,7.0,,left,gold,0.0,5.0,40.0,1.0,5.0,30.0,15.0,5.0,15.0,30.0,30.0,60.0,RR,9.0,1.0,right,2020_Feb_28_1107,habits_v_MRI,59.950002629166114,
9.0,1.0,resp2,stim/left_resp_img.png,"[0.5, 0]",left,stim/gold_coin.png,silver,,,,,training,,,gold,val,,,,,0.0,0.0,0.0,0.0,3.0,1.0,7.0,1.0,,,,,,,,,0.0,training_resp,,481.69121348828776,15.302648340119047,7.0,,left,gold,0.0,5.0,40.0,1.0,5.0,30.0,15.0,5.0,15.0,30.0,30.0,60.0,RR,9.0,1.0,right,2020_Feb_28_1107,habits_v_MRI,59.950002629166114,
9.0,1.0,resp2,stim/left_resp_img.png,"[0.5, 0]",left,stim/gold_coin.png,silver,,,,,training,,,gold,val,,,,,0.0,0.0,0.0,0.0,3.0,1.0,7.0,1.0,,,,,,,,,0.0,training_resp,,484.80877536849584,18.4201955581666,7.0,,left,gold,0.0,5.0,40.0,1.0,5.0,30.0,15.0,5.0,15.0,30.0,30.0,60.0,RR,9.0,1.0,right,2020_Feb_28_1107,habits_v_MRI,59.950002629166114,
9.0,1.0,resp2,stim/left_resp_img.png,"[0.5, 0]",left,stim/gold_coin.png,silver,,,,,training,,,gold,val,,,,,0.0,0.0,0.0,0.0,3.0,1.0,7.0,1.0,,,,,,,,,0.0,training_resp,,487.24279031687183,20.854235138976943,7.0,,left,gold,0.0,5.0,40.0,1.0,5.0,30.0,15.0,5.0,15.0,30.0,30.0,60.0,RR,9.0,1.0,right,2020_Feb_28_1107,habits_v_MRI,59.950002629166114,
9.0,1.0,resp2,stim/left_resp_img.png,"[0.5, 0]",left,stim/gold_coin.png,silver,,,,,training,,,gold,val,,,,,0.0,0.0,0.0,0.0,3.0,1.0,7.0,1.0,,,,,,,,,0.0,training_resp,,489.00996441202005,22.62142008409137,7.0,,left,gold,0.0,5.0,40.0,1.0,5.0,30.0,15.0,5.0,15.0,30.0,30.0,60.0,RR,9.0,1.0,right,2020_Feb_28_1107,habits_v_MRI,59.950002629166114,
9.0,1.0,resp2,stim/left_resp_img.png,"[0.5, 0]",left,stim/gold_coin.png,silver,,,,,training,,,gold,val,,,,,0.0,0.0,0.0,0.0,3.0,1.0,7.0,1.0,,,,,,,,,0.0,training_resp,,491.0438841735595,24.6553404321312,7.0,,left,gold,0.0,5.0,40.0,1.0,5.0,30.0,15.0,5.0,15.0,30.0,30.0,60.0,RR,9.0,1.0,right,2020_Feb_28_1107,habits_v_MRI,59.950002629166114,
9.0,1.0,resp2,stim/left_resp_img.png,"[0.5, 0]",left,stim/gold_coin.png,silver,,,,,training,,,gold,val,,,,,0.0,0.0,0.0,0.0,3.0,1.0,7.0,1.0,,,,,,,,,0.0,training_resp,,493.427955659281,27.0393447651295,7.0,,left,gold,0.0,5.0,40.0,1.0,5.0,30.0,15.0,5.0,15.0,30.0,30.0,60.0,RR,9.0,1.0,right,2020_Feb_28_1107,habits_v_MRI,59.950002629166114,
9.0,1.0,resp2,stim/left_resp_img.png,"[0.5, 0]",left,stim/gold_coin.png,silver,,,,,training,,,gold,val,,,,,0.0,0.0,0.0,0.0,3.0,1.0,7.0,1.0,,,,,,,,,0.0,training_resp,,495.4785070155631,29.089899053855333,7.0,,left,gold,0.0,5.0,40.0,1.0,5.0,30.0,15.0,5.0,15.0,30.0,30.0,60.0,RR,9.0,1.0,right,2020_Feb_28_1107,habits_v_MRI,59.950002629166114,
9.0,1.0,resp2,stim/left_resp_img.png,"[0.5, 0]",left,stim/gold_coin.png,silver,,,,,training,,,gold,val,,,,,0.0,0.0,0.0,0.0,3.0,1.0,7.0,1.0,,,,,,,,,0.0,training_resp,,497.2123803860159,30.82377389050089,7.0,23.0,left,gold,1.0,5.0,40.0,1.0,5.0,30.0,15.0,5.0,15.0,30.0,30.0,60.0,RR,9.0,1.0,right,2020_Feb_28_1107,habits_v_MRI,59.950002629166114,
9.0,1.0,resp2,stim/left_resp_img.png,"[0.5, 0]",left,stim/gold_coin.png,silver,,,,,training,,,gold,val,,,,,0.0,0.0,0.0,0.0,3.0,1.0,7.0,1.0,,,,,,,,,0.0,training_resp,,499.59631170140347,33.207723680185154,7.0,,left,gold,0.0,5.0,40.0,1.0,5.0,30.0,15.0,5.0,15.0,30.0,30.0,60.0,RR,9.0,1.0,right,2020_Feb_28_1107,habits_v_MRI,59.950002629166114,
9.0,1.0,resp2,stim/left_resp_img.png,"[0.5, 0]",left,stim/gold_coin.png,silver,,,,,training,,,gold,val,,,,,0.0,0.0,0.0,0.0,3.0,1.0,7.0,1.0,,,,,,,,,0.0,training_resp,,501.4469285096274,35.05832553305663,7.0,,left,gold,0.0,5.0,40.0,1.0,5.0,30.0,15.0,5.0,15.0,30.0,30.0,60.0,RR,9.0,1.0,right,2020_Feb_28_1107,habits_v_MRI,59.950002629166114,
9.0,1.0,resp2,stim/left_resp_img.png,"[0.5, 0]",left,stim/gold_coin.png,silver,,,,,training,,,gold,val,,,,,0.0,0.0,0.0,0.0,3.0,1.0,7.0,1.0,,,,,,,,,0.0,training_resp,,503.4644157887087,37.07580430805683,7.0,,left,gold,0.0,5.0,40.0,1.0,5.0,30.0,15.0,5.0,15.0,30.0,30.0,60.0,RR,9.0,1.0,right,2020_Feb_28_1107,habits_v_MRI,59.950002629166114,
9.0,1.0,resp2,stim/left_resp_img.png,"[0.5, 0]",left,stim/gold_coin.png,silver,,,,,training,,,gold,val,,,,,0.0,0.0,0.0,0.0,3.0,1.0,7.0,1.0,,,,,,,,,0.0,training_resp,,505.1816080063,38.792966614768375,7.0,,left,gold,0.0,5.0,40.0,1.0,5.0,30.0,15.0,5.0,15.0,30.0,30.0,60.0,RR,9.0,1.0,right,2020_Feb_28_1107,habits_v_MRI,59.950002629166114,
9.0,1.0,resp2,stim/left_resp_img.png,"[0.5, 0]",left,stim/gold_coin.png,silver,,,,,training,,,gold,val,,,,,0.0,0.0,0.0,0.0,3.0,1.0,7.0,1.0,,,,,,,,,0.0,training_resp,,507.1155748627498,40.72683523467276,7.0,,left,gold,0.0,5.0,40.0,1.0,5.0,30.0,15.0,5.0,15.0,30.0,30.0,60.0,RR,9.0,1.0,right,2020_Feb_28_1107,habits_v_MRI,59.950002629166114,
9.0,1.0,resp2,stim/left_resp_img.png,"[0.5, 0]",left,stim/gold_coin.png,silver,,,,,training,,,gold,val,,,,,0.0,0.0,0.0,0.0,3.0,1.0,7.0,1.0,,,,,,,,,0.0,training_resp,,508.8160132030025,42.427359495311975,7.0,,left,gold,0.0,5.0,40.0,1.0,5.0,30.0,15.0,5.0,15.0,30.0,30.0,60.0,RR,9.0,1.0,right,2020_Feb_28_1107,habits_v_MRI,59.950002629166114,
9.0,1.0,resp2,stim/left_resp_img.png,"[0.5, 0]",left,stim/gold_coin.png,silver,,,,,training,,,gold,val,,,,,0.0,0.0,0.0,0.0,3.0,1.0,7.0,1.0,,,,,,,,,0.0,training_resp,,510.5498865734553,44.16127685230458,7.0,,left,gold,0.0,5.0,40.0,1.0,5.0,30.0,15.0,5.0,15.0,30.0,30.0,60.0,RR,9.0,1.0,right,2020_Feb_28_1107,habits_v_MRI,59.950002629166114,
9.0,1.0,resp2,stim/left_resp_img.png,"[0.5, 0]",left,stim/gold_coin.png,silver,,,,,training,,,gold,val,,,,,0.0,0.0,0.0,0.0,3.0,1.0,7.0,1.0,,,,,,,,,0.0,training_resp,,511.9666069037048,45.57804586092243,7.0,,left,gold,0.0,5.0,40.0,1.0,5.0,30.0,15.0,5.0,15.0,30.0,30.0,60.0,RR,9.0,1.0,right,2020_Feb_28_1107,habits_v_MRI,59.950002629166114,
9.0,1.0,resp2,stim/left_resp_img.png,"[0.5, 0]",left,stim/gold_coin.png,silver,,,,,training,,,gold,val,,,,,0.0,0.0,0.0,0.0,3.0,1.0,7.0,1.0,,,,,,,,,0.0,training_resp,,514.1839665632579,47.79535449610557,7.0,,left,gold,0.0,5.0,40.0,1.0,5.0,30.0,15.0,5.0,15.0,30.0,30.0,60.0,RR,9.0,1.0,right,2020_Feb_28_1107,habits_v_MRI,59.950002629166114,
9.0,1.0,resp2,stim/left_resp_img.png,"[0.5, 0]",left,stim/gold_coin.png,silver,,,,,training,,,gold,val,,,,,0.0,0.0,0.0,0.0,3.0,1.0,7.0,1.0,,,,,,,,,0.0,training_resp,,516.7845687093213,50.39600620028796,7.0,,right,,,5.0,40.0,1.0,5.0,30.0,15.0,5.0,15.0,30.0,30.0,60.0,RR,9.0,1.0,right,2020_Feb_28_1107,habits_v_MRI,59.950002629166114,
9.0,1.0,resp2,stim/left_resp_img.png,"[0.5, 0]",left,stim/gold_coin.png,silver,,,,,training,,,gold,val,,,,,0.0,0.0,0.0,0.0,3.0,1.0,7.0,1.0,,,,,,,,,0.0,training_resp,,517.3680542359944,50.97950462967856,7.0,,right,,,5.0,40.0,1.0,5.0,30.0,15.0,5.0,15.0,30.0,30.0,60.0,RR,9.0,1.0,right,2020_Feb_28_1107,habits_v_MRI,59.950002629166114,
9.0,1.0,resp2,stim/left_resp_img.png,"[0.5, 0]",left,stim/gold_coin.png,silver,,,,,training,,,gold,val,,,,,0.0,0.0,0.0,0.0,3.0,1.0,7.0,1.0,,,,,,,,,0.0,training_resp,,518.8519161699223,52.46335864608409,7.0,,right,,,5.0,40.0,1.0,5.0,30.0,15.0,5.0,15.0,30.0,30.0,60.0,RR,9.0,1.0,right,2020_Feb_28_1107,habits_v_MRI,59.950002629166114,
9.0,1.0,resp2,stim/left_resp_img.png,"[0.5, 0]",left,stim/gold_coin.png,silver,,,,,training,,,gold,val,,,,,0.0,0.0,0.0,0.0,3.0,1.0,7.0,1.0,,,,,,,,,0.0,training_resp,,519.9021660719882,53.51361470622942,7.0,,right,,,5.0,40.0,1.0,5.0,30.0,15.0,5.0,15.0,30.0,30.0,60.0,RR,9.0,1.0,right,2020_Feb_28_1107,habits_v_MRI,59.950002629166114,
9.0,1.0,resp2,stim/left_resp_img.png,"[0.5, 0]",left,stim/gold_coin.png,silver,,,,,training,,,gold,val,,,,,0.0,0.0,0.0,0.0,3.0,1.0,7.0,1.0,,,,,,,,,0.0,training_resp,,522.3195494256215,55.93096316390438,7.0,,right,,,5.0,40.0,1.0,5.0,30.0,15.0,5.0,15.0,30.0,30.0,60.0,RR,9.0,1.0,right,2020_Feb_28_1107,habits_v_MRI,59.950002629166114,
9.0,1.0,resp2,stim/left_resp_img.png,"[0.5, 0]",left,stim/gold_coin.png,silver,,,,,training,,,gold,val,,,,,0.0,0.0,0.0,0.0,3.0,1.0,7.0,1.0,,,,,,,,,0.0,training_resp,,523.6699401431833,57.281382619345095,7.0,,right,,,5.0,40.0,1.0,5.0,30.0,15.0,5.0,15.0,30.0,30.0,60.0,RR,9.0,1.0,right,2020_Feb_28_1107,habits_v_MRI,59.950002629166114,
9.0,1.0,resp2,stim/left_resp_img.png,"[0.5, 0]",left,stim/gold_coin.png,silver,,,,,training,,,gold,val,,,,,0.0,0.0,0.0,0.0,3.0,1.0,7.0,1.0,,,,,,,,,0.0,training_resp,,525.4037874149508,59.01522461272543,7.0,,left,gold,0.0,5.0,40.0,1.0,5.0,30.0,15.0,5.0,15.0,30.0,30.0,60.0,RR,9.0,1.0,right,2020_Feb_28_1107,habits_v_MRI,59.950002629166114,
9.0,1.0,resp2,stim/left_resp_img.png,"[0.5, 0]",left,stim/gold_coin.png,silver,,,,,training,,,gold,val,,,,,0.0,0.0,0.0,0.0,3.0,1.0,7.0,1.0,,,,,,,,,0.0,ITI_start,26.666666666666668,526.0718549055164,59.68203408893896,,,,,,5.0,40.0,1.0,5.0,30.0,15.0,5.0,15.0,30.0,30.0,60.0,RR,9.0,1.0,right,2020_Feb_28_1107,habits_v_MRI,59.950002629166114,
9.0,0.0,resp1,stim/right_resp_img.png,"[-0.5, 0]",right,stim/silver_coin.png,silver,,,,,training,,,silver,deval,,,,,0.0,0.0,0.0,0.0,4.0,0.0,8.0,0.0,,,,,,,,,0.0,training_period_start,45.0,552.7840027494822,0.0,8.0,17.0,,,,5.0,40.0,1.0,5.0,30.0,15.0,5.0,15.0,30.0,30.0,60.0,RR,9.0,1.0,right,2020_Feb_28_1107,habits_v_MRI,59.950002629166114,
9.0,0.0,resp1,stim/right_resp_img.png,"[-0.5, 0]",right,stim/silver_coin.png,silver,,,,,training,,,silver,deval,,,,,0.0,0.0,0.0,0.0,4.0,0.0,8.0,0.0,,,,,,,,,0.0,training_resp,,555.6289649445098,2.8653848409303464,8.0,,left,,,5.0,40.0,1.0,5.0,30.0,15.0,5.0,15.0,30.0,30.0,60.0,RR,9.0,1.0,right,2020_Feb_28_1107,habits_v_MRI,59.950002629166114,
9.0,0.0,resp1,stim/right_resp_img.png,"[-0.5, 0]",right,stim/silver_coin.png,silver,,,,,training,,,silver,deval,,,,,0.0,0.0,0.0,0.0,4.0,0.0,8.0,0.0,,,,,,,,,0.0,training_resp,,556.9131893860176,4.14969754870981,8.0,,left,,,5.0,40.0,1.0,5.0,30.0,15.0,5.0,15.0,30.0,30.0,60.0,RR,9.0,1.0,right,2020_Feb_28_1107,habits_v_MRI,59.950002629166114,
9.0,0.0,resp1,stim/right_resp_img.png,"[-0.5, 0]",right,stim/silver_coin.png,silver,,,,,training,,,silver,deval,,,,,0.0,0.0,0.0,0.0,4.0,0.0,8.0,0.0,,,,,,,,,0.0,training_resp,,558.7963887657388,6.032900447375141,8.0,,left,,,5.0,40.0,1.0,5.0,30.0,15.0,5.0,15.0,30.0,30.0,60.0,RR,9.0,1.0,right,2020_Feb_28_1107,habits_v_MRI,59.950002629166114,
9.0,0.0,resp1,stim/right_resp_img.png,"[-0.5, 0]",right,stim/silver_coin.png,silver,,,,,training,,,silver,deval,,,,,0.0,0.0,0.0,0.0,4.0,0.0,8.0,0.0,,,,,,,,,0.0,training_resp,,560.0798639702844,7.316360696451738,8.0,,left,,,5.0,40.0,1.0,5.0,30.0,15.0,5.0,15.0,30.0,30.0,60.0,RR,9.0,1.0,right,2020_Feb_28_1107,habits_v_MRI,59.950002629166114,
9.0,0.0,resp1,stim/right_resp_img.png,"[-0.5, 0]",right,stim/silver_coin.png,silver,,,,,training,,,silver,deval,,,,,0.0,0.0,0.0,0.0,4.0,0.0,8.0,0.0,,,,,,,,,0.0,training_resp,,562.514627275872,9.750828412710687,8.0,,right,silver,0.0,5.0,40.0,1.0,5.0,30.0,15.0,5.0,15.0,30.0,30.0,60.0,RR,9.0,1.0,right,2020_Feb_28_1107,habits_v_MRI,59.950002629166114,
9.0,0.0,resp1,stim/right_resp_img.png,"[-0.5, 0]",right,stim/silver_coin.png,silver,,,,,training,,,silver,deval,,,,,0.0,0.0,0.0,0.0,4.0,0.0,8.0,0.0,,,,,,,,,0.0,training_resp,,563.5647669184254,10.8010293430998,8.0,,right,silver,0.0,5.0,40.0,1.0,5.0,30.0,15.0,5.0,15.0,30.0,30.0,60.0,RR,9.0,1.0,right,2020_Feb_28_1107,habits_v_MRI,59.950002629166114,
9.0,0.0,resp1,stim/right_resp_img.png,"[-0.5, 0]",right,stim/silver_coin.png,silver,,,,,training,,,silver,deval,,,,,0.0,0.0,0.0,0.0,4.0,0.0,8.0,0.0,,,,,,,,,0.0,training_resp,,564.9318338037119,12.168065731122624,8.0,,right,silver,0.0,5.0,40.0,1.0,5.0,30.0,15.0,5.0,15.0,30.0,30.0,60.0,RR,9.0,1.0,right,2020_Feb_28_1107,habits_v_MRI,59.950002629166114,
9.0,0.0,resp1,stim/right_resp_img.png,"[-0.5, 0]",right,stim/silver_coin.png,silver,,,,,training,,,silver,deval,,,,,0.0,0.0,0.0,0.0,4.0,0.0,8.0,0.0,,,,,,,,,0.0,training_resp,,566.5322406496853,13.768508645996915,8.0,,right,silver,0.0,5.0,40.0,1.0,5.0,30.0,15.0,5.0,15.0,30.0,30.0,60.0,RR,9.0,1.0,right,2020_Feb_28_1107,habits_v_MRI,59.950002629166114,
9.0,0.0,resp1,stim/right_resp_img.png,"[-0.5, 0]",right,stim/silver_coin.png,silver,,,,,training,,,silver,deval,,,,,0.0,0.0,0.0,0.0,4.0,0.0,8.0,0.0,,,,,,,,,0.0,training_resp,,567.9326598704793,15.168944288452622,8.0,,right,silver,0.0,5.0,40.0,1.0,5.0,30.0,15.0,5.0,15.0,30.0,30.0,60.0,RR,9.0,1.0,right,2020_Feb_28_1107,habits_v_MRI,59.950002629166114,
9.0,0.0,resp1,stim/right_resp_img.png,"[-0.5, 0]",right,stim/silver_coin.png,silver,,,,,training,,,silver,deval,,,,,0.0,0.0,0.0,0.0,4.0,0.0,8.0,0.0,,,,,,,,,0.0,training_resp,,570.0332365043578,17.269493064202834,8.0,,right,silver,0.0,5.0,40.0,1.0,5.0,30.0,15.0,5.0,15.0,30.0,30.0,60.0,RR,9.0,1.0,right,2020_Feb_28_1107,habits_v_MRI,59.950002629166114,
9.0,0.0,resp1,stim/right_resp_img.png,"[-0.5, 0]",right,stim/silver_coin.png,silver,,,,,training,,,silver,deval,,,,,0.0,0.0,0.0,0.0,4.0,0.0,8.0,0.0,,,,,,,,,0.0,training_resp,,571.9838487380184,19.22011057625059,8.0,,right,silver,0.0,5.0,40.0,1.0,5.0,30.0,15.0,5.0,15.0,30.0,30.0,60.0,RR,9.0,1.0,right,2020_Feb_28_1107,habits_v_MRI,59.950002629166114,
9.0,0.0,resp1,stim/right_resp_img.png,"[-0.5, 0]",right,stim/silver_coin.png,silver,,,,,training,,,silver,deval,,,,,0.0,0.0,0.0,0.0,4.0,0.0,8.0,0.0,,,,,,,,,0.0,training_resp,,573.4175980078289,20.653868350142147,8.0,,right,silver,0.0,5.0,40.0,1.0,5.0,30.0,15.0,5.0,15.0,30.0,30.0,60.0,RR,9.0,1.0,right,2020_Feb_28_1107,habits_v_MRI,59.950002629166114,
9.0,0.0,resp1,stim/right_resp_img.png,"[-0.5, 0]",right,stim/silver_coin.png,silver,,,,,training,,,silver,deval,,,,,0.0,0.0,0.0,0.0,4.0,0.0,8.0,0.0,,,,,,,,,0.0,training_resp,,575.0180415092036,22.254308919073083,8.0,,right,silver,0.0,5.0,40.0,1.0,5.0,30.0,15.0,5.0,15.0,30.0,30.0,60.0,RR,9.0,1.0,right,2020_Feb_28_1107,habits_v_MRI,59.950002629166114,
9.0,0.0,resp1,stim/right_resp_img.png,"[-0.5, 0]",right,stim/silver_coin.png,silver,,,,,training,,,silver,deval,,,,,0.0,0.0,0.0,0.0,4.0,0.0,8.0,0.0,,,,,,,,,0.0,training_resp,,576.6352066310938,23.87146553688217,8.0,,right,silver,0.0,5.0,40.0,1.0,5.0,30.0,15.0,5.0,15.0,30.0,30.0,60.0,RR,9.0,1.0,right,2020_Feb_28_1107,habits_v_MRI,59.950002629166114,
9.0,0.0,resp1,stim/right_resp_img.png,"[-0.5, 0]",right,stim/silver_coin.png,silver,,,,,training,,,silver,deval,,,,,0.0,0.0,0.0,0.0,4.0,0.0,8.0,0.0,,,,,,,,,0.0,training_resp,,578.3523369742907,25.588603211159352,8.0,,right,silver,0.0,5.0,40.0,1.0,5.0,30.0,15.0,5.0,15.0,30.0,30.0,60.0,RR,9.0,1.0,right,2020_Feb_28_1107,habits_v_MRI,59.950002629166114,
9.0,0.0,resp1,stim/right_resp_img.png,"[-0.5, 0]",right,stim/silver_coin.png,silver,,,,,training,,,silver,deval,,,,,0.0,0.0,0.0,0.0,4.0,0.0,8.0,0.0,,,,,,,,,0.0,training_resp,,579.9861589098,27.22243189130677,8.0,,right,silver,0.0,5.0,40.0,1.0,5.0,30.0,15.0,5.0,15.0,30.0,30.0,60.0,RR,9.0,1.0,right,2020_Feb_28_1107,habits_v_MRI,59.950002629166114,
9.0,0.0,resp1,stim/right_resp_img.png,"[-0.5, 0]",right,stim/silver_coin.png,silver,,,,,training,,,silver,deval,,,,,0.0,0.0,0.0,0.0,4.0,0.0,8.0,0.0,,,,,,,,,0.0,training_resp,,581.6033143546665,28.83958235097816,8.0,,right,silver,0.0,5.0,40.0,1.0,5.0,30.0,15.0,5.0,15.0,30.0,30.0,60.0,RR,9.0,1.0,right,2020_Feb_28_1107,habits_v_MRI,59.950002629166114,
9.0,0.0,resp1,stim/right_resp_img.png,"[-0.5, 0]",right,stim/silver_coin.png,silver,,,,,training,,,silver,deval,,,,,0.0,0.0,0.0,0.0,4.0,0.0,8.0,0.0,,,,,,,,,0.0,training_resp,,583.2537951566046,30.490042625868227,8.0,,right,silver,0.0,5.0,40.0,1.0,5.0,30.0,15.0,5.0,15.0,30.0,30.0,60.0,RR,9.0,1.0,right,2020_Feb_28_1107,habits_v_MRI,59.950002629166114,
9.0,0.0,resp1,stim/right_resp_img.png,"[-0.5, 0]",right,stim/silver_coin.png,silver,,,,,training,,,silver,deval,,,,,0.0,0.0,0.0,0.0,4.0,0.0,8.0,0.0,,,,,,,,,0.0,training_resp,,584.7376758581377,31.97385734762065,8.0,,right,silver,0.0,5.0,40.0,1.0,5.0,30.0,15.0,5.0,15.0,30.0,30.0,60.0,RR,9.0,1.0,right,2020_Feb_28_1107,habits_v_MRI,59.950002629166114,
9.0,0.0,resp1,stim/right_resp_img.png,"[-0.5, 0]",right,stim/silver_coin.png,silver,,,,,training,,,silver,deval,,,,,0.0,0.0,0.0,0.0,4.0,0.0,8.0,0.0,,,,,,,,,0.0,training_resp,,586.1546815141919,33.3908685753122,8.0,,right,silver,0.0,5.0,40.0,1.0,5.0,30.0,15.0,5.0,15.0,30.0,30.0,60.0,RR,9.0,1.0,right,2020_Feb_28_1107,habits_v_MRI,59.950002629166114,
9.0,0.0,resp1,stim/right_resp_img.png,"[-0.5, 0]",right,stim/silver_coin.png,silver,,,,,training,,,silver,deval,,,,,0.0,0.0,0.0,0.0,4.0,0.0,8.0,0.0,,,,,,,,,0.0,training_resp,,588.1052274748217,35.34142333327327,8.0,12.0,right,silver,1.0,5.0,40.0,1.0,5.0,30.0,15.0,5.0,15.0,30.0,30.0,60.0,RR,9.0,1.0,right,2020_Feb_28_1107,habits_v_MRI,59.950002629166114,
9.0,0.0,resp1,stim/right_resp_img.png,"[-0.5, 0]",right,stim/silver_coin.png,silver,,,,,training,,,silver,deval,,,,,0.0,0.0,0.0,0.0,4.0,0.0,8.0,0.0,,,,,,,,,0.0,training_resp,,590.2057912059827,37.44201228336897,8.0,,right,silver,0.0,5.0,40.0,1.0,5.0,30.0,15.0,5.0,15.0,30.0,30.0,60.0,RR,9.0,1.0,right,2020_Feb_28_1107,habits_v_MRI,59.950002629166114,
9.0,0.0,resp1,stim/right_resp_img.png,"[-0.5, 0]",right,stim/silver_coin.png,silver,,,,,training,,,silver,deval,,,,,0.0,0.0,0.0,0.0,4.0,0.0,8.0,0.0,,,,,,,,,0.0,training_resp,,591.8562951741624,39.09248810017016,8.0,,right,silver,0.0,5.0,40.0,1.0,5.0,30.0,15.0,5.0,15.0,30.0,30.0,60.0,RR,9.0,1.0,right,2020_Feb_28_1107,habits_v_MRI,59.950002629166114,
9.0,0.0,resp1,stim/right_resp_img.png,"[-0.5, 0]",right,stim/silver_coin.png,silver,,,,,training,,,silver,deval,,,,,0.0,0.0,0.0,0.0,4.0,0.0,8.0,0.0,,,,,,,,,0.0,training_resp,,593.5234386546654,40.75965005502803,8.0,,right,silver,0.0,5.0,40.0,1.0,5.0,30.0,15.0,5.0,15.0,30.0,30.0,60.0,RR,9.0,1.0,right,2020_Feb_28_1107,habits_v_MRI,59.950002629166114,
9.0,0.0,resp1,stim/right_resp_img.png,"[-0.5, 0]",right,stim/silver_coin.png,silver,,,,,training,,,silver,deval,,,,,0.0,0.0,0.0,0.0,4.0,0.0,8.0,0.0,,,,,,,,,0.0,training_resp,,595.4239722404163,42.66020710027078,8.0,,right,silver,0.0,5.0,40.0,1.0,5.0,30.0,15.0,5.0,15.0,30.0,30.0,60.0,RR,9.0,1.0,right,2020_Feb_28_1107,habits_v_MRI,59.950002629166114,
9.0,0.0,resp1,stim/right_resp_img.png,"[-0.5, 0]",right,stim/silver_coin.png,silver,,,,,training,,,silver,deval,,,,,0.0,0.0,0.0,0.0,4.0,0.0,8.0,0.0,,,,,,,,,0.0,training_resp,,597.2580935188453,44.49430814490188,8.0,,right,silver,0.0,5.0,40.0,1.0,5.0,30.0,15.0,5.0,15.0,30.0,30.0,60.0,RR,9.0,1.0,right,2020_Feb_28_1107,habits_v_MRI,59.950002629166114,
9.0,0.0,resp1,stim/right_resp_img.png,"[-0.5, 0]",right,stim/silver_coin.png,silver,,,,,training,,,silver,deval,,,,,0.0,0.0,0.0,0.0,4.0,0.0,8.0,0.0,,,,,,,,,0.0,ITI_start,18.33333333333333,597.4427245717379,44.67777883342933,,,,,,5.0,40.0,1.0,5.0,30.0,15.0,5.0,15.0,30.0,30.0,60.0,RR,9.0,1.0,right,2020_Feb_28_1107,habits_v_MRI,59.950002629166114,
9.0,1.0,resp2,stim/left_resp_img.png,"[0.5, 0]",left,stim/gold_coin.png,silver,,,,,training,,,gold,val,,,,,0.0,0.0,0.0,0.0,4.0,1.0,9.0,1.0,,,,,,,,,0.0,training_period_start,37.5,615.8190130833536,0.0,9.0,23.0,,,,5.0,40.0,1.0,5.0,30.0,15.0,5.0,15.0,30.0,30.0,60.0,RR,9.0,1.0,right,2020_Feb_28_1107,habits_v_MRI,59.950002629166114,
9.0,1.0,resp2,stim/left_resp_img.png,"[0.5, 0]",left,stim/gold_coin.png,silver,,,,,training,,,gold,val,,,,,0.0,0.0,0.0,0.0,4.0,1.0,9.0,1.0,,,,,,,,,0.0,training_resp,,618.3804217778961,2.582181473087985,9.0,,left,gold,0.0,5.0,40.0,1.0,5.0,30.0,15.0,5.0,15.0,30.0,30.0,60.0,RR,9.0,1.0,right,2020_Feb_28_1107,habits_v_MRI,59.950002629166114,
9.0,1.0,resp2,stim/left_resp_img.png,"[0.5, 0]",left,stim/gold_coin.png,silver,,,,,training,,,gold,val,,,,,0.0,0.0,0.0,0.0,4.0,1.0,9.0,1.0,,,,,,,,,0.0,training_resp,,620.1975408018916,4.39935621334007,9.0,,left,gold,0.0,5.0,40.0,1.0,5.0,30.0,15.0,5.0,15.0,30.0,30.0,60.0,RR,9.0,1.0,right,2020_Feb_28_1107,habits_v_MRI,59.950002629166114,
9.0,1.0,resp2,stim/left_resp_img.png,"[0.5, 0]",left,stim/gold_coin.png,silver,,,,,training,,,gold,val,,,,,0.0,0.0,0.0,0.0,4.0,1.0,9.0,1.0,,,,,,,,,0.0,training_resp,,621.7980033641215,5.999754848482553,9.0,,left,gold,0.0,5.0,40.0,1.0,5.0,30.0,15.0,5.0,15.0,30.0,30.0,60.0,RR,9.0,1.0,right,2020_Feb_28_1107,habits_v_MRI,59.950002629166114,
9.0,1.0,resp2,stim/left_resp_img.png,"[0.5, 0]",left,stim/gold_coin.png,silver,,,,,training,,,gold,val,,,,,0.0,0.0,0.0,0.0,4.0,1.0,9.0,1.0,,,,,,,,,0.0,training_resp,,623.4485302052926,7.650319224805571,9.0,,left,gold,0.0,5.0,40.0,1.0,5.0,30.0,15.0,5.0,15.0,30.0,30.0,60.0,RR,9.0,1.0,right,2020_Feb_28_1107,habits_v_MRI,59.950002629166114,
9.0,1.0,resp2,stim/left_resp_img.png,"[0.5, 0]",left,stim/gold_coin.png,silver,,,,,training,,,gold,val,,,,,0.0,0.0,0.0,0.0,4.0,1.0,9.0,1.0,,,,,,,,,0.0,training_resp,,624.7155060677906,8.917324411682785,9.0,,left,gold,0.0,5.0,40.0,1.0,5.0,30.0,15.0,5.0,15.0,30.0,30.0,60.0,RR,9.0,1.0,right,2020_Feb_28_1107,habits_v_MRI,59.950002629166114,
9.0,1.0,resp2,stim/left_resp_img.png,"[0.5, 0]",left,stim/gold_coin.png,silver,,,,,training,,,gold,val,,,,,0.0,0.0,0.0,0.0,4.0,1.0,9.0,1.0,,,,,,,,,0.0,training_resp,,626.6493796728319,10.85119185858639,9.0,,left,gold,0.0,5.0,40.0,1.0,5.0,30.0,15.0,5.0,15.0,30.0,30.0,60.0,RR,9.0,1.0,right,2020_Feb_28_1107,habits_v_MRI,59.950002629166114,
9.0,1.0,resp2,stim/left_resp_img.png,"[0.5, 0]",left,stim/gold_coin.png,silver,,,,,training,,,gold,val,,,,,0.0,0.0,0.0,0.0,4.0,1.0,9.0,1.0,,,,,,,,,0.0,training_resp,,628.5332013151492,12.734989161719568,9.0,,left,gold,0.0,5.0,40.0,1.0,5.0,30.0,15.0,5.0,15.0,30.0,30.0,60.0,RR,9.0,1.0,right,2020_Feb_28_1107,habits_v_MRI,59.950002629166114,
9.0,1.0,resp2,stim/left_resp_img.png,"[0.5, 0]",left,stim/gold_coin.png,silver,,,,,training,,,gold,val,,,,,0.0,0.0,0.0,0.0,4.0,1.0,9.0,1.0,,,,,,,,,0.0,training_resp,,630.4340826876578,14.635873173363509,9.0,,left,gold,0.0,5.0,40.0,1.0,5.0,30.0,15.0,5.0,15.0,30.0,30.0,60.0,RR,9.0,1.0,right,2020_Feb_28_1107,habits_v_MRI,59.950002629166114,
9.0,1.0,resp2,stim/left_resp_img.png,"[0.5, 0]",left,stim/gold_coin.png,silver,,,,,training,,,gold,val,,,,,0.0,0.0,0.0,0.0,4.0,1.0,9.0,1.0,,,,,,,,,0.0,training_resp,,631.9511438840418,16.152944046771154,9.0,,left,gold,0.0,5.0,40.0,1.0,5.0,30.0,15.0,5.0,15.0,30.0,30.0,60.0,RR,9.0,1.0,right,2020_Feb_28_1107,habits_v_MRI,59.950002629166114,
9.0,1.0,resp2,stim/left_resp_img.png,"[0.5, 0]",left,stim/gold_coin.png,silver,,,,,training,,,gold,val,,,,,0.0,0.0,0.0,0.0,4.0,1.0,9.0,1.0,,,,,,,,,0.0,training_resp,,634.0685037195217,18.270261361962184,9.0,,left,gold,0.0,5.0,40.0,1.0,5.0,30.0,15.0,5.0,15.0,30.0,30.0,60.0,RR,9.0,1.0,right,2020_Feb_28_1107,habits_v_MRI,59.950002629166114,
9.0,1.0,resp2,stim/left_resp_img.png,"[0.5, 0]",left,stim/gold_coin.png,silver,,,,,training,,,gold,val,,,,,0.0,0.0,0.0,0.0,4.0,1.0,9.0,1.0,,,,,,,,,0.0,training_resp,,636.3857857868425,20.587568355025724,9.0,,left,gold,0.0,5.0,40.0,1.0,5.0,30.0,15.0,5.0,15.0,30.0,30.0,60.0,RR,9.0,1.0,right,2020_Feb_28_1107,habits_v_MRI,59.950002629166114,
9.0,1.0,resp2,stim/left_resp_img.png,"[0.5, 0]",left,stim/gold_coin.png,silver,,,,,training,,,gold,val,,,,,0.0,0.0,0.0,0.0,4.0,1.0,9.0,1.0,,,,,,,,,0.0,training_resp,,637.9695713015972,22.17135562916519,9.0,,left,gold,0.0,5.0,40.0,1.0,5.0,30.0,15.0,5.0,15.0,30.0,30.0,60.0,RR,9.0,1.0,right,2020_Feb_28_1107,habits_v_MRI,59.950002629166114,
9.0,1.0,resp2,stim/left_resp_img.png,"[0.5, 0]",left,stim/gold_coin.png,silver,,,,,training,,,gold,val,,,,,0.0,0.0,0.0,0.0,4.0,1.0,9.0,1.0,,,,,,,,,0.0,training_resp,,640.020161366032,24.22197179228533,9.0,,left,gold,0.0,5.0,40.0,1.0,5.0,30.0,15.0,5.0,15.0,30.0,30.0,60.0,RR,9.0,1.0,right,2020_Feb_28_1107,habits_v_MRI,59.950002629166114,
9.0,1.0,resp2,stim/left_resp_img.png,"[0.5, 0]",left,stim/gold_coin.png,silver,,,,,training,,,gold,val,,,,,0.0,0.0,0.0,0.0,4.0,1.0,9.0,1.0,,,,,,,,,0.0,training_resp,,642.4375898791477,26.63935749186203,9.0,,left,gold,0.0,5.0,40.0,1.0,5.0,30.0,15.0,5.0,15.0,30.0,30.0,60.0,RR,9.0,1.0,right,2020_Feb_28_1107,habits_v_MRI,59.950002629166114,
9.0,1.0,resp2,stim/left_resp_img.png,"[0.5, 0]",left,stim/gold_coin.png,silver,,,,,training,,,gold,val,,,,,0.0,0.0,0.0,0.0,4.0,1.0,9.0,1.0,,,,,,,,,0.0,training_resp,,644.8049022092018,29.006627301627304,9.0,,left,gold,0.0,5.0,40.0,1.0,5.0,30.0,15.0,5.0,15.0,30.0,30.0,60.0,RR,9.0,1.0,right,2020_Feb_28_1107,habits_v_MRI,59.950002629166114,
9.0,1.0,resp2,stim/left_resp_img.png,"[0.5, 0]",left,stim/gold_coin.png,silver,,,,,training,,,gold,val,,,,,0.0,0.0,0.0,0.0,4.0,1.0,9.0,1.0,,,,,,,,,0.0,training_resp,,648.2071404190501,32.408800411445554,9.0,,left,gold,0.0,5.0,40.0,1.0,5.0,30.0,15.0,5.0,15.0,30.0,30.0,60.0,RR,9.0,1.0,right,2020_Feb_28_1107,habits_v_MRI,59.950002629166114,
9.0,1.0,resp2,stim/left_resp_img.png,"[0.5, 0]",left,stim/gold_coin.png,silver,,,,,training,,,gold,val,,,,,0.0,0.0,0.0,0.0,4.0,1.0,9.0,1.0,,,,,,,,,0.0,training_resp,,650.2903467779979,34.4920038379496,9.0,,left,gold,0.0,5.0,40.0,1.0,5.0,30.0,15.0,5.0,15.0,30.0,30.0,60.0,RR,9.0,1.0,right,2020_Feb_28_1107,habits_v_MRI,59.950002629166114,
9.0,1.0,resp2,stim/left_resp_img.png,"[0.5, 0]",left,stim/gold_coin.png,silver,,,,,training,,,gold,val,,,,,0.0,0.0,0.0,0.0,4.0,1.0,9.0,1.0,,,,,,,,,0.0,training_resp,,652.3071525593405,36.50880785984919,9.0,,left,gold,0.0,5.0,40.0,1.0,5.0,30.0,15.0,5.0,15.0,30.0,30.0,60.0,RR,9.0,1.0,right,2020_Feb_28_1107,habits_v_MRI,59.950002629166114,
9.0,1.0,resp2,stim/left_resp_img.png,"[0.5, 0]",left,stim/gold_coin.png,silver,,,,,training,,,gold,val,,,,,0.0,0.0,0.0,0.0,4.0,1.0,9.0,1.0,,,,,,,,,0.0,ITI_start,25.0,652.9755414447282,37.17566014960176,,,,,,5.0,40.0,1.0,5.0,30.0,15.0,5.0,15.0,30.0,30.0,60.0,RR,9.0,1.0,right,2020_Feb_28_1107,habits_v_MRI,59.950002629166114,
9.0,2.0,resp1_vs_resp2,,,,,silver,,,,,consumption,right,left,,,silver,gold,val,val,0.0,0.0,0.0,0.0,,,,,,,,,,,,,0.0,piggy_getting_full_msg,7.0,677.997003638593,,,,,,,5.0,40.0,1.0,5.0,30.0,15.0,5.0,15.0,30.0,30.0,60.0,RR,9.0,1.0,right,2020_Feb_28_1107,habits_v_MRI,59.950002629166114,
9.0,2.0,resp1_vs_resp2,,,,,silver,,,,,consumption,right,left,,,silver,gold,val,val,0.0,0.0,0.0,0.0,,,,,,,,,,,,,0.0,instr_before_consumption,7.0,685.0157829482923,,,,,,,5.0,40.0,1.0,5.0,30.0,15.0,5.0,15.0,30.0,30.0,60.0,RR,9.0,1.0,right,2020_Feb_28_1107,habits_v_MRI,59.950002629166114,
9.0,2.0,resp1_vs_resp2,,,,,silver,,,,,consumption,right,left,,,silver,gold,val,val,0.0,0.0,0.0,0.0,,,,,,,,,,,,,0.0,consumption_start,15.0,692.0353214652278,0.0,,,,,,5.0,40.0,1.0,5.0,30.0,15.0,5.0,15.0,30.0,30.0,60.0,RR,9.0,1.0,right,2020_Feb_28_1107,habits_v_MRI,59.950002629166114,
9.0,2.0,resp1_vs_resp2,,,,,silver,,,,,consumption,right,left,,,silver,gold,val,val,0.0,0.0,0.0,0.0,,,,,,,,,,,,,0.0,consumption_resp,,693.0678145974525,1.031760316924192,,,left,gold,,5.0,40.0,1.0,5.0,30.0,15.0,5.0,15.0,30.0,30.0,60.0,RR,9.0,1.0,right,2020_Feb_28_1107,habits_v_MRI,59.950002629166114,
9.0,2.0,resp1_vs_resp2,,,,,silver,,,,,consumption,right,left,,,silver,gold,val,val,0.0,0.0,0.0,0.0,,,,,,,,,,,,,0.0,consumption_resp,,693.6675965416362,1.6319425383699129,,,left,gold,,5.0,40.0,1.0,5.0,30.0,15.0,5.0,15.0,30.0,30.0,60.0,RR,9.0,1.0,right,2020_Feb_28_1107,habits_v_MRI,59.950002629166114,
9.0,2.0,resp1_vs_resp2,,,,,silver,,,,,consumption,right,left,,,silver,gold,val,val,0.0,0.0,0.0,0.0,,,,,,,,,,,,,0.0,consumption_resp,,694.1176853357465,2.0820536189712584,,,left,gold,,5.0,40.0,1.0,5.0,30.0,15.0,5.0,15.0,30.0,30.0,60.0,RR,9.0,1.0,right,2020_Feb_28_1107,habits_v_MRI,59.950002629166114,
9.0,2.0,resp1_vs_resp2,,,,,silver,,,,,consumption,right,left,,,silver,gold,val,val,0.0,0.0,0.0,0.0,,,,,,,,,,,,,0.0,consumption_resp,,694.5177602887852,2.4821473396150395,,,left,gold,,5.0,40.0,1.0,5.0,30.0,15.0,5.0,15.0,30.0,30.0,60.0,RR,9.0,1.0,right,2020_Feb_28_1107,habits_v_MRI,59.950002629166114,
9.0,2.0,resp1_vs_resp2,,,,,silver,,,,,consumption,right,left,,,silver,gold,val,val,0.0,0.0,0.0,0.0,,,,,,,,,,,,,0.0,consumption_resp,,694.8847101699212,2.8490198045037687,,,left,gold,,5.0,40.0,1.0,5.0,30.0,15.0,5.0,15.0,30.0,30.0,60.0,RR,9.0,1.0,right,2020_Feb_28_1107,habits_v_MRI,59.950002629166114,
9.0,2.0,resp1_vs_resp2,,,,,silver,,,,,consumption,right,left,,,silver,gold,val,val,0.0,0.0,0.0,0.0,,,,,,,,,,,,,0.0,consumption_resp,,695.3347649478237,3.2990819134865887,,,left,gold,,5.0,40.0,1.0,5.0,30.0,15.0,5.0,15.0,30.0,30.0,60.0,RR,9.0,1.0,right,2020_Feb_28_1107,habits_v_MRI,59.950002629166114,
9.0,2.0,resp1_vs_resp2,,,,,silver,,,,,consumption,right,left,,,silver,gold,val,val,0.0,0.0,0.0,0.0,,,,,,,,,,,,,0.0,consumption_resp,,695.8349133289885,3.79924055817537,,,left,gold,,5.0,40.0,1.0,5.0,30.0,15.0,5.0,15.0,30.0,30.0,60.0,RR,9.0,1.0,right,2020_Feb_28_1107,habits_v_MRI,59.950002629166114,
9.0,2.0,resp1_vs_resp2,,,,,silver,,,,,consumption,right,left,,,silver,gold,val,val,0.0,0.0,0.0,0.0,,,,,,,,,,,,,0.0,consumption_resp,,696.2013975395821,4.16597314592218,,,left,gold,,5.0,40.0,1.0,5.0,30.0,15.0,5.0,15.0,30.0,30.0,60.0,RR,9.0,1.0,right,2020_Feb_28_1107,habits_v_MRI,59.950002629166114,
9.0,2.0,resp1_vs_resp2,,,,,silver,,,,,consumption,right,left,,,silver,gold,val,val,0.0,0.0,0.0,0.0,,,,,,,,,,,,,0.0,consumption_resp,,696.568417212693,4.532714531058446,,,left,gold,,5.0,40.0,1.0,5.0,30.0,15.0,5.0,15.0,30.0,30.0,60.0,RR,9.0,1.0,right,2020_Feb_28_1107,habits_v_MRI,59.950002629166114,
9.0,2.0,resp1_vs_resp2,,,,,silver,,,,,consumption,right,left,,,silver,gold,val,val,0.0,0.0,0.0,0.0,,,,,,,,,,,,,0.0,consumption_resp,,696.8852582419058,4.8495408981107175,,,left,gold,,5.0,40.0,1.0,5.0,30.0,15.0,5.0,15.0,30.0,30.0,60.0,RR,9.0,1.0,right,2020_Feb_28_1107,habits_v_MRI,59.950002629166114,
9.0,2.0,resp1_vs_resp2,,,,,silver,,,,,consumption,right,left,,,silver,gold,val,val,0.0,0.0,0.0,0.0,,,,,,,,,,,,,0.0,instr_after_consumption,3.0,707.0376932180952,15.002850032993592,,,,,,5.0,40.0,1.0,5.0,30.0,15.0,5.0,15.0,30.0,30.0,60.0,RR,9.0,1.0,right,2020_Feb_28_1107,habits_v_MRI,59.950002629166114,
9.0,2.0,resp1_vs_resp2,,,,,silver,,,,,consumption,right,left,,,silver,gold,val,val,0.0,0.0,0.0,0.0,,,,,,,,,,,,,0.0,rest_after_block,3.0,710.056110958627,,,,,,,5.0,40.0,1.0,5.0,30.0,15.0,5.0,15.0,30.0,30.0,60.0,RR,9.0,1.0,right,2020_Feb_28_1107,habits_v_MRI,59.950002629166114,
9.0,0.0,resp1,stim/right_resp_img.png,"[-0.5, 0]",right,stim/silver_coin.png,silver,,,,,training,,,silver,deval,,,,,0.0,1.0,1.0,1.0,0.0,0.0,0.0,0.0,,,,,,,,,1.0,instr_before_block,6.0,0.0054921563132666,,,,,,,5.0,40.0,1.0,5.0,30.0,15.0,5.0,15.0,30.0,30.0,60.0,RR,9.0,1.0,right,2020_Feb_28_1107,habits_v_MRI,59.950002629166114,
9.0,0.0,resp1,stim/right_resp_img.png,"[-0.5, 0]",right,stim/silver_coin.png,silver,,,,,training,,,silver,deval,,,,,0.0,1.0,1.0,1.0,0.0,0.0,0.0,0.0,,,,,,,,,1.0,training_period_start,52.5,6.047784897731617,0.0,10.0,18.0,,,,5.0,40.0,1.0,5.0,30.0,15.0,5.0,15.0,30.0,30.0,60.0,RR,9.0,1.0,right,2020_Feb_28_1107,habits_v_MRI,59.950002629166114,
9.0,0.0,resp1,stim/right_resp_img.png,"[-0.5, 0]",right,stim/silver_coin.png,silver,,,,,training,,,silver,deval,,,,,0.0,1.0,1.0,1.0,0.0,0.0,0.0,0.0,,,,,,,,,1.0,training_resp,,8.593175169546157,2.566307032946497,10.0,,right,silver,0.0,5.0,40.0,1.0,5.0,30.0,15.0,5.0,15.0,30.0,30.0,60.0,RR,9.0,1.0,right,2020_Feb_28_1107,habits_v_MRI,59.950002629166114,
9.0,0.0,resp1,stim/right_resp_img.png,"[-0.5, 0]",right,stim/silver_coin.png,silver,,,,,training,,,silver,deval,,,,,0.0,1.0,1.0,1.0,0.0,0.0,0.0,0.0,,,,,,,,,1.0,training_resp,,10.260268798680045,4.23333438904956,10.0,,right,silver,0.0,5.0,40.0,1.0,5.0,30.0,15.0,5.0,15.0,30.0,30.0,60.0,RR,9.0,1.0,right,2020_Feb_28_1107,habits_v_MRI,59.950002629166114,
9.0,0.0,resp1,stim/right_resp_img.png,"[-0.5, 0]",right,stim/silver_coin.png,silver,,,,,training,,,silver,deval,,,,,0.0,1.0,1.0,1.0,0.0,0.0,0.0,0.0,,,,,,,,,1.0,training_resp,,11.97723169985693,5.950560916040558,10.0,,right,silver,0.0,5.0,40.0,1.0,5.0,30.0,15.0,5.0,15.0,30.0,30.0,60.0,RR,9.0,1.0,right,2020_Feb_28_1107,habits_v_MRI,59.950002629166114,
9.0,0.0,resp1,stim/right_resp_img.png,"[-0.5, 0]",right,stim/silver_coin.png,silver,,,,,training,,,silver,deval,,,,,0.0,1.0,1.0,1.0,0.0,0.0,0.0,0.0,,,,,,,,,1.0,training_resp,,13.86116536112968,7.834489298984408,10.0,,right,silver,0.0,5.0,40.0,1.0,5.0,30.0,15.0,5.0,15.0,30.0,30.0,60.0,RR,9.0,1.0,right,2020_Feb_28_1107,habits_v_MRI,59.950002629166114,
9.0,0.0,resp1,stim/right_resp_img.png,"[-0.5, 0]",right,stim/silver_coin.png,silver,,,,,training,,,silver,deval,,,,,0.0,1.0,1.0,1.0,0.0,0.0,0.0,0.0,,,,,,,,,1.0,training_resp,,23.64750789996469,17.6206133714295,10.0,,right,silver,0.0,5.0,40.0,1.0,5.0,30.0,15.0,5.0,15.0,30.0,30.0,60.0,RR,9.0,1.0,right,2020_Feb_28_1107,habits_v_MRI,59.950002629166114,
9.0,0.0,resp1,stim/right_resp_img.png,"[-0.5, 0]",right,stim/silver_coin.png,silver,,,,,training,,,silver,deval,,,,,0.0,1.0,1.0,1.0,0.0,0.0,0.0,0.0,,,,,,,,,1.0,training_resp,,26.264703812426887,20.237905467685778,10.0,,right,silver,0.0,5.0,40.0,1.0,5.0,30.0,15.0,5.0,15.0,30.0,30.0,60.0,RR,9.0,1.0,right,2020_Feb_28_1107,habits_v_MRI,59.950002629166114,
9.0,0.0,resp1,stim/right_resp_img.png,"[-0.5, 0]",right,stim/silver_coin.png,silver,,,,,training,,,silver,deval,,,,,0.0,1.0,1.0,1.0,0.0,0.0,0.0,0.0,,,,,,,,,1.0,training_resp,,28.31536249583587,22.288556233572308,10.0,,right,silver,0.0,5.0,40.0,1.0,5.0,30.0,15.0,5.0,15.0,30.0,30.0,60.0,RR,9.0,1.0,right,2020_Feb_28_1107,habits_v_MRI,59.950002629166114,
9.0,0.0,resp1,stim/right_resp_img.png,"[-0.5, 0]",right,stim/silver_coin.png,silver,,,,,training,,,silver,deval,,,,,0.0,1.0,1.0,1.0,0.0,0.0,0.0,0.0,,,,,,,,,1.0,training_resp,,30.14923334436025,24.12242502940353,10.0,,right,silver,0.0,5.0,40.0,1.0,5.0,30.0,15.0,5.0,15.0,30.0,30.0,60.0,RR,9.0,1.0,right,2020_Feb_28_1107,habits_v_MRI,59.950002629166114,
9.0,0.0,resp1,stim/right_resp_img.png,"[-0.5, 0]",right,stim/silver_coin.png,silver,,,,,training,,,silver,deval,,,,,0.0,1.0,1.0,1.0,0.0,0.0,0.0,0.0,,,,,,,,,1.0,training_resp,,32.049700363888405,26.0228791461559,10.0,,right,silver,0.0,5.0,40.0,1.0,5.0,30.0,15.0,5.0,15.0,30.0,30.0,60.0,RR,9.0,1.0,right,2020_Feb_28_1107,habits_v_MRI,59.950002629166114,
9.0,0.0,resp1,stim/right_resp_img.png,"[-0.5, 0]",right,stim/silver_coin.png,silver,,,,,training,,,silver,deval,,,,,0.0,1.0,1.0,1.0,0.0,0.0,0.0,0.0,,,,,,,,,1.0,training_resp,,34.367297374643385,28.34026795416139,10.0,,right,silver,0.0,5.0,40.0,1.0,5.0,30.0,15.0,5.0,15.0,30.0,30.0,60.0,RR,9.0,1.0,right,2020_Feb_28_1107,habits_v_MRI,59.950002629166114,
9.0,0.0,resp1,stim/right_resp_img.png,"[-0.5, 0]",right,stim/silver_coin.png,silver,,,,,training,,,silver,deval,,,,,0.0,1.0,1.0,1.0,0.0,0.0,0.0,0.0,,,,,,,,,1.0,training_resp,,36.96809071546886,30.94092992186779,10.0,,right,silver,0.0,5.0,40.0,1.0,5.0,30.0,15.0,5.0,15.0,30.0,30.0,60.0,RR,9.0,1.0,right,2020_Feb_28_1107,habits_v_MRI,59.950002629166114,
9.0,0.0,resp1,stim/right_resp_img.png,"[-0.5, 0]",right,stim/silver_coin.png,silver,,,,,training,,,silver,deval,,,,,0.0,1.0,1.0,1.0,0.0,0.0,0.0,0.0,,,,,,,,,1.0,training_resp,,38.96837193588726,32.94157505745534,10.0,,right,silver,0.0,5.0,40.0,1.0,5.0,30.0,15.0,5.0,15.0,30.0,30.0,60.0,RR,9.0,1.0,right,2020_Feb_28_1107,habits_v_MRI,59.950002629166114,
9.0,0.0,resp1,stim/right_resp_img.png,"[-0.5, 0]",right,stim/silver_coin.png,silver,,,,,training,,,silver,deval,,,,,0.0,1.0,1.0,1.0,0.0,0.0,0.0,0.0,,,,,,,,,1.0,training_resp,,41.3687832391588,35.341893989010714,10.0,,right,silver,0.0,5.0,40.0,1.0,5.0,30.0,15.0,5.0,15.0,30.0,30.0,60.0,RR,9.0,1.0,right,2020_Feb_28_1107,habits_v_MRI,59.950002629166114,
9.0,0.0,resp1,stim/right_resp_img.png,"[-0.5, 0]",right,stim/silver_coin.png,silver,,,,,training,,,silver,deval,,,,,0.0,1.0,1.0,1.0,0.0,0.0,0.0,0.0,,,,,,,,,1.0,training_resp,,43.336279550159816,37.30946566356579,10.0,,right,silver,0.0,5.0,40.0,1.0,5.0,30.0,15.0,5.0,15.0,30.0,30.0,60.0,RR,9.0,1.0,right,2020_Feb_28_1107,habits_v_MRI,59.950002629166114,
9.0,0.0,resp1,stim/right_resp_img.png,"[-0.5, 0]",right,stim/silver_coin.png,silver,,,,,training,,,silver,deval,,,,,0.0,1.0,1.0,1.0,0.0,0.0,0.0,0.0,,,,,,,,,1.0,training_resp,,45.77030446880963,39.74350641737692,10.0,,right,silver,0.0,5.0,40.0,1.0,5.0,30.0,15.0,5.0,15.0,30.0,30.0,60.0,RR,9.0,1.0,right,2020_Feb_28_1107,habits_v_MRI,59.950002629166114,
9.0,0.0,resp1,stim/right_resp_img.png,"[-0.5, 0]",right,stim/silver_coin.png,silver,,,,,training,,,silver,deval,,,,,0.0,1.0,1.0,1.0,0.0,0.0,0.0,0.0,,,,,,,,,1.0,training_resp,,48.18789807794383,42.16080824931851,10.0,,right,silver,0.0,5.0,40.0,1.0,5.0,30.0,15.0,5.0,15.0,30.0,30.0,60.0,RR,9.0,1.0,right,2020_Feb_28_1107,habits_v_MRI,59.950002629166114,
9.0,0.0,resp1,stim/right_resp_img.png,"[-0.5, 0]",right,stim/silver_coin.png,silver,,,,,training,,,silver,deval,,,,,0.0,1.0,1.0,1.0,0.0,0.0,0.0,0.0,,,,,,,,,1.0,training_resp,,50.30508108768845,44.27821295103058,10.0,,right,silver,0.0,5.0,40.0,1.0,5.0,30.0,15.0,5.0,15.0,30.0,30.0,60.0,RR,9.0,1.0,right,2020_Feb_28_1107,habits_v_MRI,59.950002629166114,
9.0,0.0,resp1,stim/right_resp_img.png,"[-0.5, 0]",right,stim/silver_coin.png,silver,,,,,training,,,silver,deval,,,,,0.0,1.0,1.0,1.0,0.0,0.0,0.0,0.0,,,,,,,,,1.0,training_resp,,52.40558998234337,46.37873152276734,10.0,18.0,right,silver,1.0,5.0,40.0,1.0,5.0,30.0,15.0,5.0,15.0,30.0,30.0,60.0,RR,9.0,1.0,right,2020_Feb_28_1107,habits_v_MRI,59.950002629166114,
9.0,0.0,resp1,stim/right_resp_img.png,"[-0.5, 0]",right,stim/silver_coin.png,silver,,,,,training,,,silver,deval,,,,,0.0,1.0,1.0,1.0,0.0,0.0,0.0,0.0,,,,,,,,,1.0,ITI_start,30.0,58.20865648757899,52.18061713670613,,,,,,5.0,40.0,1.0,5.0,30.0,15.0,5.0,15.0,30.0,30.0,60.0,RR,9.0,1.0,right,2020_Feb_28_1107,habits_v_MRI,59.950002629166114,
9.0,1.0,resp2,stim/left_resp_img.png,"[0.5, 0]",left,stim/gold_coin.png,silver,,,,,training,,,gold,val,,,,,0.0,1.0,1.0,1.0,0.0,1.0,1.0,1.0,,,,,,,,,1.0,training_period_start,52.5,88.23445047350833,0.0,11.0,15.0,,,,5.0,40.0,1.0,5.0,30.0,15.0,5.0,15.0,30.0,30.0,60.0,RR,9.0,1.0,right,2020_Feb_28_1107,habits_v_MRI,59.950002629166114,
9.0,1.0,resp2,stim/left_resp_img.png,"[0.5, 0]",left,stim/gold_coin.png,silver,,,,,training,,,gold,val,,,,,0.0,1.0,1.0,1.0,0.0,1.0,1.0,1.0,,,,,,,,,1.0,training_resp,,90.91669980320148,2.699275923310779,11.0,,left,gold,0.0,5.0,40.0,1.0,5.0,30.0,15.0,5.0,15.0,30.0,30.0,60.0,RR,9.0,1.0,right,2020_Feb_28_1107,habits_v_MRI,59.950002629166114,
9.0,1.0,resp2,stim/left_resp_img.png,"[0.5, 0]",left,stim/gold_coin.png,silver,,,,,training,,,gold,val,,,,,0.0,1.0,1.0,1.0,0.0,1.0,1.0,1.0,,,,,,,,,1.0,training_resp,,93.0505668981932,4.833169116987847,11.0,,left,gold,0.0,5.0,40.0,1.0,5.0,30.0,15.0,5.0,15.0,30.0,30.0,60.0,RR,9.0,1.0,right,2020_Feb_28_1107,habits_v_MRI,59.950002629166114,
9.0,1.0,resp2,stim/left_resp_img.png,"[0.5, 0]",left,stim/gold_coin.png,silver,,,,,training,,,gold,val,,,,,0.0,1.0,1.0,1.0,0.0,1.0,1.0,1.0,,,,,,,,,1.0,training_resp,,95.63461105362512,7.417202422395347,11.0,,left,gold,0.0,5.0,40.0,1.0,5.0,30.0,15.0,5.0,15.0,30.0,30.0,60.0,RR,9.0,1.0,right,2020_Feb_28_1107,habits_v_MRI,59.950002629166114,
9.0,1.0,resp2,stim/left_resp_img.png,"[0.5, 0]",left,stim/gold_coin.png,silver,,,,,training,,,gold,val,,,,,0.0,1.0,1.0,1.0,0.0,1.0,1.0,1.0,,,,,,,,,1.0,training_resp,,99.68627966742496,11.468436742667109,11.0,,left,gold,0.0,5.0,40.0,1.0,5.0,30.0,15.0,5.0,15.0,30.0,30.0,60.0,RR,9.0,1.0,right,2020_Feb_28_1107,habits_v_MRI,59.950002629166114,
9.0,1.0,resp2,stim/left_resp_img.png,"[0.5, 0]",left,stim/gold_coin.png,silver,,,,,training,,,gold,val,,,,,0.0,1.0,1.0,1.0,0.0,1.0,1.0,1.0,,,,,,,,,1.0,training_resp,,104.07041478698376,15.853014073334634,11.0,,left,gold,0.0,5.0,40.0,1.0,5.0,30.0,15.0,5.0,15.0,30.0,30.0,60.0,RR,9.0,1.0,right,2020_Feb_28_1107,habits_v_MRI,59.950002629166114,
9.0,1.0,resp2,stim/left_resp_img.png,"[0.5, 0]",left,stim/gold_coin.png,silver,,,,,training,,,gold,val,,,,,0.0,1.0,1.0,1.0,0.0,1.0,1.0,1.0,,,,,,,,,1.0,training_resp,,108.67223154735984,20.454638466006145,11.0,,left,gold,0.0,5.0,40.0,1.0,5.0,30.0,15.0,5.0,15.0,30.0,30.0,60.0,RR,9.0,1.0,right,2020_Feb_28_1107,habits_v_MRI,59.950002629166114,
9.0,1.0,resp2,stim/left_resp_img.png,"[0.5, 0]",left,stim/gold_coin.png,silver,,,,,training,,,gold,val,,,,,0.0,1.0,1.0,1.0,0.0,1.0,1.0,1.0,,,,,,,,,1.0,training_resp,,112.2569542680867,24.0395078084548,11.0,,left,gold,0.0,5.0,40.0,1.0,5.0,30.0,15.0,5.0,15.0,30.0,30.0,60.0,RR,9.0,1.0,right,2020_Feb_28_1107,habits_v_MRI,59.950002629166114,
9.0,1.0,resp2,stim/left_resp_img.png,"[0.5, 0]",left,stim/gold_coin.png,silver,,,,,training,,,gold,val,,,,,0.0,1.0,1.0,1.0,0.0,1.0,1.0,1.0,,,,,,,,,1.0,training_resp,,115.1736872078036,26.95627769682324,11.0,,left,gold,0.0,5.0,40.0,1.0,5.0,30.0,15.0,5.0,15.0,30.0,30.0,60.0,RR,9.0,1.0,right,2020_Feb_28_1107,habits_v_MRI,59.950002629166114,
9.0,1.0,resp2,stim/left_resp_img.png,"[0.5, 0]",left,stim/gold_coin.png,silver,,,,,training,,,gold,val,,,,,0.0,1.0,1.0,1.0,0.0,1.0,1.0,1.0,,,,,,,,,1.0,training_resp,,119.9416398642352,31.72426348977024,11.0,,right,,,5.0,40.0,1.0,5.0,30.0,15.0,5.0,15.0,30.0,30.0,60.0,RR,9.0,1.0,right,2020_Feb_28_1107,habits_v_MRI,59.950002629166114,
9.0,1.0,resp2,stim/left_resp_img.png,"[0.5, 0]",left,stim/gold_coin.png,silver,,,,,training,,,gold,val,,,,,0.0,1.0,1.0,1.0,0.0,1.0,1.0,1.0,,,,,,,,,1.0,training_resp,,121.0419185627834,32.8245618356741,11.0,,right,,,5.0,40.0,1.0,5.0,30.0,15.0,5.0,15.0,30.0,30.0,60.0,RR,9.0,1.0,right,2020_Feb_28_1107,habits_v_MRI,59.950002629166114,
9.0,1.0,resp2,stim/left_resp_img.png,"[0.5, 0]",left,stim/gold_coin.png,silver,,,,,training,,,gold,val,,,,,0.0,1.0,1.0,1.0,0.0,1.0,1.0,1.0,,,,,,,,,1.0,training_resp,,122.1756185090635,33.95824448054191,11.0,,right,,,5.0,40.0,1.0,5.0,30.0,15.0,5.0,15.0,30.0,30.0,60.0,RR,9.0,1.0,right,2020_Feb_28_1107,habits_v_MRI,59.950002629166114,
9.0,1.0,resp2,stim/left_resp_img.png,"[0.5, 0]",left,stim/gold_coin.png,silver,,,,,training,,,gold,val,,,,,0.0,1.0,1.0,1.0,0.0,1.0,1.0,1.0,,,,,,,,,1.0,training_resp,,126.54350911517396,38.32614183129044,11.0,,right,,,5.0,40.0,1.0,5.0,30.0,15.0,5.0,15.0,30.0,30.0,60.0,RR,9.0,1.0,right,2020_Feb_28_1107,habits_v_MRI,59.950002629166114,
9.0,1.0,resp2,stim/left_resp_img.png,"[0.5, 0]",left,stim/gold_coin.png,silver,,,,,training,,,gold,val,,,,,0.0,1.0,1.0,1.0,0.0,1.0,1.0,1.0,,,,,,,,,1.0,training_resp,,127.66047776391495,39.44311487872619,11.0,,right,,,5.0,40.0,1.0,5.0,30.0,15.0,5.0,15.0,30.0,30.0,60.0,RR,9.0,1.0,right,2020_Feb_28_1107,habits_v_MRI,59.950002629166114,
9.0,1.0,resp2,stim/left_resp_img.png,"[0.5, 0]",left,stim/gold_coin.png,silver,,,,,training,,,gold,val,,,,,0.0,1.0,1.0,1.0,0.0,1.0,1.0,1.0,,,,,,,,,1.0,training_resp,,128.72749532572925,40.51010018365923,11.0,,right,,,5.0,40.0,1.0,5.0,30.0,15.0,5.0,15.0,30.0,30.0,60.0,RR,9.0,1.0,right,2020_Feb_28_1107,habits_v_MRI,59.950002629166114,
9.0,1.0,resp2,stim/left_resp_img.png,"[0.5, 0]",left,stim/gold_coin.png,silver,,,,,training,,,gold,val,,,,,0.0,1.0,1.0,1.0,0.0,1.0,1.0,1.0,,,,,,,,,1.0,training_resp,,131.59497157885926,43.37759197875857,11.0,,left,gold,0.0,5.0,40.0,1.0,5.0,30.0,15.0,5.0,15.0,30.0,30.0,60.0,RR,9.0,1.0,right,2020_Feb_28_1107,habits_v_MRI,59.950002629166114,
9.0,1.0,resp2,stim/left_resp_img.png,"[0.5, 0]",left,stim/gold_coin.png,silver,,,,,training,,,gold,val,,,,,0.0,1.0,1.0,1.0,0.0,1.0,1.0,1.0,,,,,,,,,1.0,training_resp,,133.77890676498646,45.56154065410374,11.0,,left,gold,0.0,5.0,40.0,1.0,5.0,30.0,15.0,5.0,15.0,30.0,30.0,60.0,RR,9.0,1.0,right,2020_Feb_28_1107,habits_v_MRI,59.950002629166114,
9.0,1.0,resp2,stim/left_resp_img.png,"[0.5, 0]",left,stim/gold_coin.png,silver,,,,,training,,,gold,val,,,,,0.0,1.0,1.0,1.0,0.0,1.0,1.0,1.0,,,,,,,,,1.0,training_resp,,135.9462223793962,47.72886008064961,11.0,,left,gold,0.0,5.0,40.0,1.0,5.0,30.0,15.0,5.0,15.0,30.0,30.0,60.0,RR,9.0,1.0,right,2020_Feb_28_1107,habits_v_MRI,59.950002629166114,
9.0,1.0,resp2,stim/left_resp_img.png,"[0.5, 0]",left,stim/gold_coin.png,silver,,,,,training,,,gold,val,,,,,0.0,1.0,1.0,1.0,0.0,1.0,1.0,1.0,,,,,,,,,1.0,training_resp,,138.2303172072861,50.01283174630953,11.0,,left,gold,0.0,5.0,40.0,1.0,5.0,30.0,15.0,5.0,15.0,30.0,30.0,60.0,RR,9.0,1.0,right,2020_Feb_28_1107,habits_v_MRI,59.950002629166114,
9.0,1.0,resp2,stim/left_resp_img.png,"[0.5, 0]",left,stim/gold_coin.png,silver,,,,,training,,,gold,val,,,,,0.0,1.0,1.0,1.0,0.0,1.0,1.0,1.0,,,,,,,,,1.0,ITI_start,18.33333333333333,140.39874773321208,52.18010220117867,,,,,,5.0,40.0,1.0,5.0,30.0,15.0,5.0,15.0,30.0,30.0,60.0,RR,9.0,1.0,right,2020_Feb_28_1107,habits_v_MRI,59.950002629166114,
