list,trial_num_python,condition,stimulus,position,corrResp,coin_img,devalued_coin,stimulus_choice1,stimulus_choice2,position1,position2,phase,corrResp1,corrResp2,outcome,cond_val,outcome_choice1,outcome_choice2,cond_val1,cond_val2,blockLoop.thisRepN,blockLoop.thisTrialN,blockLoop.thisN,blockLoop.thisIndex,trialLoop.thisRepN,trialLoop.thisTrialN,trialLoop.thisN,trialLoop.thisIndex,choice_trialLoop.thisRepN,choice_trialLoop.thisTrialN,choice_trialLoop.thisN,choice_trialLoop.thisIndex,contingency_trialLoop.thisRepN,contingency_trialLoop.thisTrialN,contingency_trialLoop.thisN,contingency_trialLoop.thisIndex,run,event,duration,globalClock_t,routineClock_t,trial,nResp_untilRnf,resp,selected_coin,wasRnf,participant,task_ordering,hand,date,expName,n_repeat_training,credits_per_rnf,cost_response,min_resp_bet_rnf,max_resp_bet_rnf,mean_resp_bet_rnf,sigma_resp_bet_rnf,min_ITI,max_ITI,min_trial_duration,max_trial_duration,schedule,frameRate,Unnamed: 65
23,0,resp1,stim/left_resp_img.png,"[0.5, 0]",left,stim/gold_coin.png,gold,,,,,training,,,gold,deval,,,,,0.0,0.0,0.0,0.0,0.0,0.0,0.0,0.0,,,,,,,,,0.0,instr_before_block,6.0,0.0058611407876014,,,,,,,55,2,right,2021_Nov_22_1225,habits_v_MRI,5,40,1,5,30,15,5,15,30,30,60,RR,60.05556313095718,
23,0,resp1,stim/left_resp_img.png,"[0.5, 0]",left,stim/gold_coin.png,gold,,,,,training,,,gold,deval,,,,,0.0,0.0,0.0,0.0,0.0,0.0,0.0,0.0,,,,,,,,,0.0,training_period_start,30.0,6.03965998487547,0.0,0.0,13.0,,,,55,2,right,2021_Nov_22_1225,habits_v_MRI,5,40,1,5,30,15,5,15,30,30,60,RR,60.05556313095718,
23,0,resp1,stim/left_resp_img.png,"[0.5, 0]",left,stim/gold_coin.png,gold,,,,,training,,,gold,deval,,,,,0.0,0.0,0.0,0.0,0.0,0.0,0.0,0.0,,,,,,,,,0.0,training_resp,,7.418535362463444,1.3994332109577954,0.0,,left,gold,0.0,55,2,right,2021_Nov_22_1225,habits_v_MRI,5,40,1,5,30,15,5,15,30,30,60,RR,60.05556313095718,
23,0,resp1,stim/left_resp_img.png,"[0.5, 0]",left,stim/gold_coin.png,gold,,,,,training,,,gold,deval,,,,,0.0,0.0,0.0,0.0,0.0,0.0,0.0,0.0,,,,,,,,,0.0,training_resp,,9.56859077187255,3.5498413969762623,0.0,,left,gold,0.0,55,2,right,2021_Nov_22_1225,habits_v_MRI,5,40,1,5,30,15,5,15,30,30,60,RR,60.05556313095718,
23,0,resp1,stim/left_resp_img.png,"[0.5, 0]",left,stim/gold_coin.png,gold,,,,,training,,,gold,deval,,,,,0.0,0.0,0.0,0.0,0.0,0.0,0.0,0.0,,,,,,,,,0.0,training_resp,,9.868765811435878,3.849951628595591,0.0,,left,gold,0.0,55,2,right,2021_Nov_22_1225,habits_v_MRI,5,40,1,5,30,15,5,15,30,30,60,RR,60.05556313095718,
23,0,resp1,stim/left_resp_img.png,"[0.5, 0]",left,stim/gold_coin.png,gold,,,,,training,,,gold,deval,,,,,0.0,0.0,0.0,0.0,0.0,0.0,0.0,0.0,,,,,,,,,0.0,training_resp,,11.536035297438502,5.517273312900215,0.0,,left,gold,0.0,55,2,right,2021_Nov_22_1225,habits_v_MRI,5,40,1,5,30,15,5,15,30,30,60,RR,60.05556313095718,
23,0,resp1,stim/left_resp_img.png,"[0.5, 0]",left,stim/gold_coin.png,gold,,,,,training,,,gold,deval,,,,,0.0,0.0,0.0,0.0,0.0,0.0,0.0,0.0,,,,,,,,,0.0,training_resp,,12.302949748467654,6.284202719572932,0.0,,left,gold,0.0,55,2,right,2021_Nov_22_1225,habits_v_MRI,5,40,1,5,30,15,5,15,30,30,60,RR,60.05556313095718,
23,0,resp1,stim/left_resp_img.png,"[0.5, 0]",left,stim/gold_coin.png,gold,,,,,training,,,gold,deval,,,,,0.0,0.0,0.0,0.0,0.0,0.0,0.0,0.0,,,,,,,,,0.0,training_resp,,13.002991419285536,6.984261691570282,0.0,,left,gold,0.0,55,2,right,2021_Nov_22_1225,habits_v_MRI,5,40,1,5,30,15,5,15,30,30,60,RR,60.05556313095718,
23,0,resp1,stim/left_resp_img.png,"[0.5, 0]",left,stim/gold_coin.png,gold,,,,,training,,,gold,deval,,,,,0.0,0.0,0.0,0.0,0.0,0.0,0.0,0.0,,,,,,,,,0.0,training_resp,,13.653207674622536,7.634453020989895,0.0,,left,gold,0.0,55,2,right,2021_Nov_22_1225,habits_v_MRI,5,40,1,5,30,15,5,15,30,30,60,RR,60.05556313095718,
23,0,resp1,stim/left_resp_img.png,"[0.5, 0]",left,stim/gold_coin.png,gold,,,,,training,,,gold,deval,,,,,0.0,0.0,0.0,0.0,0.0,0.0,0.0,0.0,,,,,,,,,0.0,training_resp,,13.803257511928678,7.784550071228296,0.0,,left,gold,0.0,55,2,right,2021_Nov_22_1225,habits_v_MRI,5,40,1,5,30,15,5,15,30,30,60,RR,60.05556313095718,
23,0,resp1,stim/left_resp_img.png,"[0.5, 0]",left,stim/gold_coin.png,gold,,,,,training,,,gold,deval,,,,,0.0,0.0,0.0,0.0,0.0,0.0,0.0,0.0,,,,,,,,,0.0,training_resp,,14.45349194901064,8.434742280747741,0.0,,left,gold,0.0,55,2,right,2021_Nov_22_1225,habits_v_MRI,5,40,1,5,30,15,5,15,30,30,60,RR,60.05556313095718,
23,0,resp1,stim/left_resp_img.png,"[0.5, 0]",left,stim/gold_coin.png,gold,,,,,training,,,gold,deval,,,,,0.0,0.0,0.0,0.0,0.0,0.0,0.0,0.0,,,,,,,,,0.0,training_resp,,15.287001181859525,9.268248287960889,0.0,,left,gold,0.0,55,2,right,2021_Nov_22_1225,habits_v_MRI,5,40,1,5,30,15,5,15,30,30,60,RR,60.05556313095718,
23,0,resp1,stim/left_resp_img.png,"[0.5, 0]",left,stim/gold_coin.png,gold,,,,,training,,,gold,deval,,,,,0.0,0.0,0.0,0.0,0.0,0.0,0.0,0.0,,,,,,,,,0.0,training_resp,,16.437633995432407,10.418779638130218,0.0,,left,gold,0.0,55,2,right,2021_Nov_22_1225,habits_v_MRI,5,40,1,5,30,15,5,15,30,30,60,RR,60.05556313095718,
23,0,resp1,stim/left_resp_img.png,"[0.5, 0]",left,stim/gold_coin.png,gold,,,,,training,,,gold,deval,,,,,0.0,0.0,0.0,0.0,0.0,0.0,0.0,0.0,,,,,,,,,0.0,training_resp,,18.05460505839437,12.03584072738886,0.0,,left,gold,0.0,55,2,right,2021_Nov_22_1225,habits_v_MRI,5,40,1,5,30,15,5,15,30,30,60,RR,60.05556313095718,
23,0,resp1,stim/left_resp_img.png,"[0.5, 0]",left,stim/gold_coin.png,gold,,,,,training,,,gold,deval,,,,,0.0,0.0,0.0,0.0,0.0,0.0,0.0,0.0,,,,,,,,,0.0,training_resp,,18.90480301529169,12.886050120927392,0.0,22.0,left,gold,1.0,55,2,right,2021_Nov_22_1225,habits_v_MRI,5,40,1,5,30,15,5,15,30,30,60,RR,60.05556313095718,
23,0,resp1,stim/left_resp_img.png,"[0.5, 0]",left,stim/gold_coin.png,gold,,,,,training,,,gold,deval,,,,,0.0,0.0,0.0,0.0,0.0,0.0,0.0,0.0,,,,,,,,,0.0,training_resp,,19.838415852747858,13.819669996388257,0.0,,left,gold,0.0,55,2,right,2021_Nov_22_1225,habits_v_MRI,5,40,1,5,30,15,5,15,30,30,60,RR,60.05556313095718,
23,0,resp1,stim/left_resp_img.png,"[0.5, 0]",left,stim/gold_coin.png,gold,,,,,training,,,gold,deval,,,,,0.0,0.0,0.0,0.0,0.0,0.0,0.0,0.0,,,,,,,,,0.0,training_resp,,20.73869405640289,14.719942335505038,0.0,,right,,,55,2,right,2021_Nov_22_1225,habits_v_MRI,5,40,1,5,30,15,5,15,30,30,60,RR,60.05556313095718,
23,0,resp1,stim/left_resp_img.png,"[0.5, 0]",left,stim/gold_coin.png,gold,,,,,training,,,gold,deval,,,,,0.0,0.0,0.0,0.0,0.0,0.0,0.0,0.0,,,,,,,,,0.0,training_resp,,21.07214126782492,15.053380162920805,0.0,,left,gold,0.0,55,2,right,2021_Nov_22_1225,habits_v_MRI,5,40,1,5,30,15,5,15,30,30,60,RR,60.05556313095718,
23,0,resp1,stim/left_resp_img.png,"[0.5, 0]",left,stim/gold_coin.png,gold,,,,,training,,,gold,deval,,,,,0.0,0.0,0.0,0.0,0.0,0.0,0.0,0.0,,,,,,,,,0.0,training_resp,,21.572302993852645,15.553548633586615,0.0,,left,gold,0.0,55,2,right,2021_Nov_22_1225,habits_v_MRI,5,40,1,5,30,15,5,15,30,30,60,RR,60.05556313095718,
23,0,resp1,stim/left_resp_img.png,"[0.5, 0]",left,stim/gold_coin.png,gold,,,,,training,,,gold,deval,,,,,0.0,0.0,0.0,0.0,0.0,0.0,0.0,0.0,,,,,,,,,0.0,training_resp,,22.172856000252068,16.153842702507973,0.0,,left,gold,0.0,55,2,right,2021_Nov_22_1225,habits_v_MRI,5,40,1,5,30,15,5,15,30,30,60,RR,60.05556313095718,
23,0,resp1,stim/left_resp_img.png,"[0.5, 0]",left,stim/gold_coin.png,gold,,,,,training,,,gold,deval,,,,,0.0,0.0,0.0,0.0,0.0,0.0,0.0,0.0,,,,,,,,,0.0,training_resp,,22.8728237724863,16.854072637856007,0.0,,left,gold,0.0,55,2,right,2021_Nov_22_1225,habits_v_MRI,5,40,1,5,30,15,5,15,30,30,60,RR,60.05556313095718,
23,0,resp1,stim/left_resp_img.png,"[0.5, 0]",left,stim/gold_coin.png,gold,,,,,training,,,gold,deval,,,,,0.0,0.0,0.0,0.0,0.0,0.0,0.0,0.0,,,,,,,,,0.0,training_resp,,23.72303580492735,17.704284084029496,0.0,,left,gold,0.0,55,2,right,2021_Nov_22_1225,habits_v_MRI,5,40,1,5,30,15,5,15,30,30,60,RR,60.05556313095718,
23,0,resp1,stim/left_resp_img.png,"[0.5, 0]",left,stim/gold_coin.png,gold,,,,,training,,,gold,deval,,,,,0.0,0.0,0.0,0.0,0.0,0.0,0.0,0.0,,,,,,,,,0.0,training_resp,,24.42256487859413,18.404107285197824,0.0,,left,gold,0.0,55,2,right,2021_Nov_22_1225,habits_v_MRI,5,40,1,5,30,15,5,15,30,30,60,RR,60.05556313095718,
23,0,resp1,stim/left_resp_img.png,"[0.5, 0]",left,stim/gold_coin.png,gold,,,,,training,,,gold,deval,,,,,0.0,0.0,0.0,0.0,0.0,0.0,0.0,0.0,,,,,,,,,0.0,training_resp,,24.656440436840057,18.637710709124804,0.0,,left,gold,0.0,55,2,right,2021_Nov_22_1225,habits_v_MRI,5,40,1,5,30,15,5,15,30,30,60,RR,60.05556313095718,
23,0,resp1,stim/left_resp_img.png,"[0.5, 0]",left,stim/gold_coin.png,gold,,,,,training,,,gold,deval,,,,,0.0,0.0,0.0,0.0,0.0,0.0,0.0,0.0,,,,,,,,,0.0,training_resp,,25.473416953813285,19.45466112717986,0.0,,left,gold,0.0,55,2,right,2021_Nov_22_1225,habits_v_MRI,5,40,1,5,30,15,5,15,30,30,60,RR,60.05556313095718,
23,0,resp1,stim/left_resp_img.png,"[0.5, 0]",left,stim/gold_coin.png,gold,,,,,training,,,gold,deval,,,,,0.0,0.0,0.0,0.0,0.0,0.0,0.0,0.0,,,,,,,,,0.0,training_resp,,25.690142509527504,19.67141894018277,0.0,,left,gold,0.0,55,2,right,2021_Nov_22_1225,habits_v_MRI,5,40,1,5,30,15,5,15,30,30,60,RR,60.05556313095718,
23,0,resp1,stim/left_resp_img.png,"[0.5, 0]",left,stim/gold_coin.png,gold,,,,,training,,,gold,deval,,,,,0.0,0.0,0.0,0.0,0.0,0.0,0.0,0.0,,,,,,,,,0.0,training_resp,,26.523936485871676,20.505169515963644,0.0,,left,gold,0.0,55,2,right,2021_Nov_22_1225,habits_v_MRI,5,40,1,5,30,15,5,15,30,30,60,RR,60.05556313095718,
23,0,resp1,stim/left_resp_img.png,"[0.5, 0]",left,stim/gold_coin.png,gold,,,,,training,,,gold,deval,,,,,0.0,0.0,0.0,0.0,0.0,0.0,0.0,0.0,,,,,,,,,0.0,training_resp,,26.75732114724815,20.73854127433151,0.0,,left,gold,0.0,55,2,right,2021_Nov_22_1225,habits_v_MRI,5,40,1,5,30,15,5,15,30,30,60,RR,60.05556313095718,
23,0,resp1,stim/left_resp_img.png,"[0.5, 0]",left,stim/gold_coin.png,gold,,,,,training,,,gold,deval,,,,,0.0,0.0,0.0,0.0,0.0,0.0,0.0,0.0,,,,,,,,,0.0,training_resp,,27.62430665222928,21.60548543184996,0.0,,left,gold,0.0,55,2,right,2021_Nov_22_1225,habits_v_MRI,5,40,1,5,30,15,5,15,30,30,60,RR,60.05556313095718,
23,0,resp1,stim/left_resp_img.png,"[0.5, 0]",left,stim/gold_coin.png,gold,,,,,training,,,gold,deval,,,,,0.0,0.0,0.0,0.0,0.0,0.0,0.0,0.0,,,,,,,,,0.0,training_resp,,27.87433253135532,21.855566734448075,0.0,,left,gold,0.0,55,2,right,2021_Nov_22_1225,habits_v_MRI,5,40,1,5,30,15,5,15,30,30,60,RR,60.05556313095718,
23,0,resp1,stim/left_resp_img.png,"[0.5, 0]",left,stim/gold_coin.png,gold,,,,,training,,,gold,deval,,,,,0.0,0.0,0.0,0.0,0.0,0.0,0.0,0.0,,,,,,,,,0.0,training_resp,,28.75792465079576,22.73911252105609,0.0,,left,gold,0.0,55,2,right,2021_Nov_22_1225,habits_v_MRI,5,40,1,5,30,15,5,15,30,30,60,RR,60.05556313095718,
23,0,resp1,stim/left_resp_img.png,"[0.5, 0]",left,stim/gold_coin.png,gold,,,,,training,,,gold,deval,,,,,0.0,0.0,0.0,0.0,0.0,0.0,0.0,0.0,,,,,,,,,0.0,training_resp,,29.041370498482134,23.0225994233042,0.0,,left,gold,0.0,55,2,right,2021_Nov_22_1225,habits_v_MRI,5,40,1,5,30,15,5,15,30,30,60,RR,60.05556313095718,
23,0,resp1,stim/left_resp_img.png,"[0.5, 0]",left,stim/gold_coin.png,gold,,,,,training,,,gold,deval,,,,,0.0,0.0,0.0,0.0,0.0,0.0,0.0,0.0,,,,,,,,,0.0,training_resp,,29.924149735365063,23.9056812915951,0.0,,left,gold,0.0,55,2,right,2021_Nov_22_1225,habits_v_MRI,5,40,1,5,30,15,5,15,30,30,60,RR,60.05556313095718,
23,0,resp1,stim/left_resp_img.png,"[0.5, 0]",left,stim/gold_coin.png,gold,,,,,training,,,gold,deval,,,,,0.0,0.0,0.0,0.0,0.0,0.0,0.0,0.0,,,,,,,,,0.0,training_resp,,30.09073551464826,24.0722814402543,0.0,,left,gold,0.0,55,2,right,2021_Nov_22_1225,habits_v_MRI,5,40,1,5,30,15,5,15,30,30,60,RR,60.05556313095718,
23,0,resp1,stim/left_resp_img.png,"[0.5, 0]",left,stim/gold_coin.png,gold,,,,,training,,,gold,deval,,,,,0.0,0.0,0.0,0.0,0.0,0.0,0.0,0.0,,,,,,,,,0.0,training_resp,,30.274207666516304,24.25560726132244,0.0,,left,gold,0.0,55,2,right,2021_Nov_22_1225,habits_v_MRI,5,40,1,5,30,15,5,15,30,30,60,RR,60.05556313095718,
23,0,resp1,stim/left_resp_img.png,"[0.5, 0]",left,stim/gold_coin.png,gold,,,,,training,,,gold,deval,,,,,0.0,0.0,0.0,0.0,0.0,0.0,0.0,0.0,,,,,,,,,0.0,training_resp,,31.841529556084424,25.82309014396742,0.0,,left,gold,0.0,55,2,right,2021_Nov_22_1225,habits_v_MRI,5,40,1,5,30,15,5,15,30,30,60,RR,60.05556313095718,
23,0,resp1,stim/left_resp_img.png,"[0.5, 0]",left,stim/gold_coin.png,gold,,,,,training,,,gold,deval,,,,,0.0,0.0,0.0,0.0,0.0,0.0,0.0,0.0,,,,,,,,,0.0,training_resp,,32.8257745327428,26.80706474604085,0.0,,left,gold,0.0,55,2,right,2021_Nov_22_1225,habits_v_MRI,5,40,1,5,30,15,5,15,30,30,60,RR,60.05556313095718,
23,0,resp1,stim/left_resp_img.png,"[0.5, 0]",left,stim/gold_coin.png,gold,,,,,training,,,gold,deval,,,,,0.0,0.0,0.0,0.0,0.0,0.0,0.0,0.0,,,,,,,,,0.0,training_resp,,32.992572916671634,26.97379040438682,0.0,20.0,left,gold,1.0,55,2,right,2021_Nov_22_1225,habits_v_MRI,5,40,1,5,30,15,5,15,30,30,60,RR,60.05556313095718,
23,0,resp1,stim/left_resp_img.png,"[0.5, 0]",left,stim/gold_coin.png,gold,,,,,training,,,gold,deval,,,,,0.0,0.0,0.0,0.0,0.0,0.0,0.0,0.0,,,,,,,,,0.0,training_resp,,34.67634168826044,28.657513723243028,0.0,,left,gold,0.0,55,2,right,2021_Nov_22_1225,habits_v_MRI,5,40,1,5,30,15,5,15,30,30,60,RR,60.05556313095718,
23,0,resp1,stim/left_resp_img.png,"[0.5, 0]",left,stim/gold_coin.png,gold,,,,,training,,,gold,deval,,,,,0.0,0.0,0.0,0.0,0.0,0.0,0.0,0.0,,,,,,,,,0.0,training_resp,,34.97602436505258,28.957358565647155,0.0,,left,gold,0.0,55,2,right,2021_Nov_22_1225,habits_v_MRI,5,40,1,5,30,15,5,15,30,30,60,RR,60.05556313095718,
23,0,resp1,stim/left_resp_img.png,"[0.5, 0]",left,stim/gold_coin.png,gold,,,,,training,,,gold,deval,,,,,0.0,0.0,0.0,0.0,0.0,0.0,0.0,0.0,,,,,,,,,0.0,training_resp,,35.6261904751882,29.607513239141557,0.0,,left,gold,0.0,55,2,right,2021_Nov_22_1225,habits_v_MRI,5,40,1,5,30,15,5,15,30,30,60,RR,60.05556313095718,
23,0,resp1,stim/left_resp_img.png,"[0.5, 0]",left,stim/gold_coin.png,gold,,,,,training,,,gold,deval,,,,,0.0,0.0,0.0,0.0,0.0,0.0,0.0,0.0,,,,,,,,,0.0,ITI_start,30.0,35.77598460065201,29.757585949730128,,,,,,55,2,right,2021_Nov_22_1225,habits_v_MRI,5,40,1,5,30,15,5,15,30,30,60,RR,60.05556313095718,
23,1,resp2,stim/right_resp_img.png,"[-0.5, 0]",right,stim/silver_coin.png,gold,,,,,training,,,silver,val,,,,,0.0,0.0,0.0,0.0,0.0,1.0,1.0,1.0,,,,,,,,,0.0,training_period_start,45.0,65.80170300602913,0.0,1.0,13.0,,,,55,2,right,2021_Nov_22_1225,habits_v_MRI,5,40,1,5,30,15,5,15,30,30,60,RR,60.05556313095718,
23,1,resp2,stim/right_resp_img.png,"[-0.5, 0]",right,stim/silver_coin.png,gold,,,,,training,,,silver,val,,,,,0.0,0.0,0.0,0.0,0.0,1.0,1.0,1.0,,,,,,,,,0.0,training_resp,,67.15221605775878,1.3655502046458423,1.0,,right,silver,0.0,55,2,right,2021_Nov_22_1225,habits_v_MRI,5,40,1,5,30,15,5,15,30,30,60,RR,60.05556313095718,
23,1,resp2,stim/right_resp_img.png,"[-0.5, 0]",right,stim/silver_coin.png,gold,,,,,training,,,silver,val,,,,,0.0,0.0,0.0,0.0,0.0,1.0,1.0,1.0,,,,,,,,,0.0,training_resp,,67.91969061177224,2.1328754955902696,1.0,,right,silver,0.0,55,2,right,2021_Nov_22_1225,habits_v_MRI,5,40,1,5,30,15,5,15,30,30,60,RR,60.05556313095718,
23,1,resp2,stim/right_resp_img.png,"[-0.5, 0]",right,stim/silver_coin.png,gold,,,,,training,,,silver,val,,,,,0.0,0.0,0.0,0.0,0.0,1.0,1.0,1.0,,,,,,,,,0.0,training_resp,,68.78661453491077,2.9998000054620206,1.0,,right,silver,0.0,55,2,right,2021_Nov_22_1225,habits_v_MRI,5,40,1,5,30,15,5,15,30,30,60,RR,60.05556313095718,
23,1,resp2,stim/right_resp_img.png,"[-0.5, 0]",right,stim/silver_coin.png,gold,,,,,training,,,silver,val,,,,,0.0,0.0,0.0,0.0,0.0,1.0,1.0,1.0,,,,,,,,,0.0,training_resp,,69.7201018622145,3.933463574387133,1.0,,right,silver,0.0,55,2,right,2021_Nov_22_1225,habits_v_MRI,5,40,1,5,30,15,5,15,30,30,60,RR,60.05556313095718,
23,1,resp2,stim/right_resp_img.png,"[-0.5, 0]",right,stim/silver_coin.png,gold,,,,,training,,,silver,val,,,,,0.0,0.0,0.0,0.0,0.0,1.0,1.0,1.0,,,,,,,,,0.0,training_resp,,70.63724415237084,4.850584164261818,1.0,,right,silver,0.0,55,2,right,2021_Nov_22_1225,habits_v_MRI,5,40,1,5,30,15,5,15,30,30,60,RR,60.05556313095718,
23,1,resp2,stim/right_resp_img.png,"[-0.5, 0]",right,stim/silver_coin.png,gold,,,,,training,,,silver,val,,,,,0.0,0.0,0.0,0.0,0.0,1.0,1.0,1.0,,,,,,,,,0.0,training_resp,,70.88709818804637,5.100496849510819,1.0,,right,silver,0.0,55,2,right,2021_Nov_22_1225,habits_v_MRI,5,40,1,5,30,15,5,15,30,30,60,RR,60.05556313095718,
23,1,resp2,stim/right_resp_img.png,"[-0.5, 0]",right,stim/silver_coin.png,gold,,,,,training,,,silver,val,,,,,0.0,0.0,0.0,0.0,0.0,1.0,1.0,1.0,,,,,,,,,0.0,training_resp,,71.53732265438884,5.750695510301739,1.0,,right,silver,0.0,55,2,right,2021_Nov_22_1225,habits_v_MRI,5,40,1,5,30,15,5,15,30,30,60,RR,60.05556313095718,
23,1,resp2,stim/right_resp_img.png,"[-0.5, 0]",right,stim/silver_coin.png,gold,,,,,training,,,silver,val,,,,,0.0,0.0,0.0,0.0,0.0,1.0,1.0,1.0,,,,,,,,,0.0,training_resp,,72.32108301017433,6.534425368066877,1.0,,right,silver,0.0,55,2,right,2021_Nov_22_1225,habits_v_MRI,5,40,1,5,30,15,5,15,30,30,60,RR,60.05556313095718,
23,1,resp2,stim/right_resp_img.png,"[-0.5, 0]",right,stim/silver_coin.png,gold,,,,,training,,,silver,val,,,,,0.0,0.0,0.0,0.0,0.0,1.0,1.0,1.0,,,,,,,,,0.0,training_resp,,73.17114812601358,7.38449048390612,1.0,,right,silver,0.0,55,2,right,2021_Nov_22_1225,habits_v_MRI,5,40,1,5,30,15,5,15,30,30,60,RR,60.05556313095718,
23,1,resp2,stim/right_resp_img.png,"[-0.5, 0]",right,stim/silver_coin.png,gold,,,,,training,,,silver,val,,,,,0.0,0.0,0.0,0.0,0.0,1.0,1.0,1.0,,,,,,,,,0.0,training_resp,,74.00474298745394,8.218077134341002,1.0,,right,silver,0.0,55,2,right,2021_Nov_22_1225,habits_v_MRI,5,40,1,5,30,15,5,15,30,30,60,RR,60.05556313095718,
23,1,resp2,stim/right_resp_img.png,"[-0.5, 0]",right,stim/silver_coin.png,gold,,,,,training,,,silver,val,,,,,0.0,0.0,0.0,0.0,0.0,1.0,1.0,1.0,,,,,,,,,0.0,training_resp,,74.78830540087074,9.001663300674409,1.0,,right,silver,0.0,55,2,right,2021_Nov_22_1225,habits_v_MRI,5,40,1,5,30,15,5,15,30,30,60,RR,60.05556313095718,
23,1,resp2,stim/right_resp_img.png,"[-0.5, 0]",right,stim/silver_coin.png,gold,,,,,training,,,silver,val,,,,,0.0,0.0,0.0,0.0,0.0,1.0,1.0,1.0,,,,,,,,,0.0,training_resp,,74.98832170525566,9.20171567471698,1.0,,right,silver,0.0,55,2,right,2021_Nov_22_1225,habits_v_MRI,5,40,1,5,30,15,5,15,30,30,60,RR,60.05556313095718,
23,1,resp2,stim/right_resp_img.png,"[-0.5, 0]",right,stim/silver_coin.png,gold,,,,,training,,,silver,val,,,,,0.0,0.0,0.0,0.0,0.0,1.0,1.0,1.0,,,,,,,,,0.0,training_resp,,75.80527945468202,10.01865084376186,1.0,13.0,right,silver,1.0,55,2,right,2021_Nov_22_1225,habits_v_MRI,5,40,1,5,30,15,5,15,30,30,60,RR,60.05556313095718,
23,1,resp2,stim/right_resp_img.png,"[-0.5, 0]",right,stim/silver_coin.png,gold,,,,,training,,,silver,val,,,,,0.0,0.0,0.0,0.0,0.0,1.0,1.0,1.0,,,,,,,,,0.0,training_resp,,77.45585992373526,11.669199055526406,1.0,,right,silver,0.0,55,2,right,2021_Nov_22_1225,habits_v_MRI,5,40,1,5,30,15,5,15,30,30,60,RR,60.05556313095718,
23,1,resp2,stim/right_resp_img.png,"[-0.5, 0]",right,stim/silver_coin.png,gold,,,,,training,,,silver,val,,,,,0.0,0.0,0.0,0.0,0.0,1.0,1.0,1.0,,,,,,,,,0.0,training_resp,,78.17271670745686,12.38598516723141,1.0,,right,silver,0.0,55,2,right,2021_Nov_22_1225,habits_v_MRI,5,40,1,5,30,15,5,15,30,30,60,RR,60.05556313095718,
23,1,resp2,stim/right_resp_img.png,"[-0.5, 0]",right,stim/silver_coin.png,gold,,,,,training,,,silver,val,,,,,0.0,0.0,0.0,0.0,0.0,1.0,1.0,1.0,,,,,,,,,0.0,training_resp,,78.72290149750188,12.936227726750076,1.0,,right,silver,0.0,55,2,right,2021_Nov_22_1225,habits_v_MRI,5,40,1,5,30,15,5,15,30,30,60,RR,60.05556313095718,
23,1,resp2,stim/right_resp_img.png,"[-0.5, 0]",right,stim/silver_coin.png,gold,,,,,training,,,silver,val,,,,,0.0,0.0,0.0,0.0,0.0,1.0,1.0,1.0,,,,,,,,,0.0,training_resp,,79.25626765517518,13.469619103707371,1.0,,right,silver,0.0,55,2,right,2021_Nov_22_1225,habits_v_MRI,5,40,1,5,30,15,5,15,30,30,60,RR,60.05556313095718,
23,1,resp2,stim/right_resp_img.png,"[-0.5, 0]",right,stim/silver_coin.png,gold,,,,,training,,,silver,val,,,,,0.0,0.0,0.0,0.0,0.0,1.0,1.0,1.0,,,,,,,,,0.0,training_resp,,79.85644295858219,14.069780331104994,1.0,,right,silver,0.0,55,2,right,2021_Nov_22_1225,habits_v_MRI,5,40,1,5,30,15,5,15,30,30,60,RR,60.05556313095718,
23,1,resp2,stim/right_resp_img.png,"[-0.5, 0]",right,stim/silver_coin.png,gold,,,,,training,,,silver,val,,,,,0.0,0.0,0.0,0.0,0.0,1.0,1.0,1.0,,,,,,,,,0.0,training_resp,,80.47347149765119,14.686814735177904,1.0,,right,silver,0.0,55,2,right,2021_Nov_22_1225,habits_v_MRI,5,40,1,5,30,15,5,15,30,30,60,RR,60.05556313095718,
23,1,resp2,stim/right_resp_img.png,"[-0.5, 0]",right,stim/silver_coin.png,gold,,,,,training,,,silver,val,,,,,0.0,0.0,0.0,0.0,0.0,1.0,1.0,1.0,,,,,,,,,0.0,training_resp,,81.10708348453045,15.320423496421428,1.0,,right,silver,0.0,55,2,right,2021_Nov_22_1225,habits_v_MRI,5,40,1,5,30,15,5,15,30,30,60,RR,60.05556313095718,
23,1,resp2,stim/right_resp_img.png,"[-0.5, 0]",right,stim/silver_coin.png,gold,,,,,training,,,silver,val,,,,,0.0,0.0,0.0,0.0,0.0,1.0,1.0,1.0,,,,,,,,,0.0,training_resp,,81.7071429551579,15.920514344703406,1.0,,right,silver,0.0,55,2,right,2021_Nov_22_1225,habits_v_MRI,5,40,1,5,30,15,5,15,30,30,60,RR,60.05556313095718,
23,1,resp2,stim/right_resp_img.png,"[-0.5, 0]",right,stim/silver_coin.png,gold,,,,,training,,,silver,val,,,,,0.0,0.0,0.0,0.0,0.0,1.0,1.0,1.0,,,,,,,,,0.0,training_resp,,82.39064487209544,16.604037375189364,1.0,,right,silver,0.0,55,2,right,2021_Nov_22_1225,habits_v_MRI,5,40,1,5,30,15,5,15,30,30,60,RR,60.05556313095718,
23,1,resp2,stim/right_resp_img.png,"[-0.5, 0]",right,stim/silver_coin.png,gold,,,,,training,,,silver,val,,,,,0.0,0.0,0.0,0.0,0.0,1.0,1.0,1.0,,,,,,,,,0.0,training_resp,,83.02407123334706,17.237434411421418,1.0,,right,silver,0.0,55,2,right,2021_Nov_22_1225,habits_v_MRI,5,40,1,5,30,15,5,15,30,30,60,RR,60.05556313095718,
23,1,resp2,stim/right_resp_img.png,"[-0.5, 0]",right,stim/silver_coin.png,gold,,,,,training,,,silver,val,,,,,0.0,0.0,0.0,0.0,0.0,1.0,1.0,1.0,,,,,,,,,0.0,training_resp,,83.67433792725205,17.887599935289472,1.0,,right,silver,0.0,55,2,right,2021_Nov_22_1225,habits_v_MRI,5,40,1,5,30,15,5,15,30,30,60,RR,60.05556313095718,
23,1,resp2,stim/right_resp_img.png,"[-0.5, 0]",right,stim/silver_coin.png,gold,,,,,training,,,silver,val,,,,,0.0,0.0,0.0,0.0,0.0,1.0,1.0,1.0,,,,,,,,,0.0,training_resp,,84.22453386057168,18.437702322844416,1.0,,right,silver,0.0,55,2,right,2021_Nov_22_1225,habits_v_MRI,5,40,1,5,30,15,5,15,30,30,60,RR,60.05556313095718,
23,1,resp2,stim/right_resp_img.png,"[-0.5, 0]",right,stim/silver_coin.png,gold,,,,,training,,,silver,val,,,,,0.0,0.0,0.0,0.0,0.0,1.0,1.0,1.0,,,,,,,,,0.0,training_resp,,84.84129319852218,19.054644940420985,1.0,10.0,right,silver,1.0,55,2,right,2021_Nov_22_1225,habits_v_MRI,5,40,1,5,30,15,5,15,30,30,60,RR,60.05556313095718,
23,1,resp2,stim/right_resp_img.png,"[-0.5, 0]",right,stim/silver_coin.png,gold,,,,,training,,,silver,val,,,,,0.0,0.0,0.0,0.0,0.0,1.0,1.0,1.0,,,,,,,,,0.0,training_resp,,86.6586286504753,20.871938751079146,1.0,,right,silver,0.0,55,2,right,2021_Nov_22_1225,habits_v_MRI,5,40,1,5,30,15,5,15,30,30,60,RR,60.05556313095718,
23,1,resp2,stim/right_resp_img.png,"[-0.5, 0]",right,stim/silver_coin.png,gold,,,,,training,,,silver,val,,,,,0.0,0.0,0.0,0.0,0.0,1.0,1.0,1.0,,,,,,,,,0.0,training_resp,,87.15928743127733,21.37239108560607,1.0,,right,silver,0.0,55,2,right,2021_Nov_22_1225,habits_v_MRI,5,40,1,5,30,15,5,15,30,30,60,RR,60.05556313095718,
23,1,resp2,stim/right_resp_img.png,"[-0.5, 0]",right,stim/silver_coin.png,gold,,,,,training,,,silver,val,,,,,0.0,0.0,0.0,0.0,0.0,1.0,1.0,1.0,,,,,,,,,0.0,training_resp,,88.45967947412282,22.672956144437197,1.0,,right,silver,0.0,55,2,right,2021_Nov_22_1225,habits_v_MRI,5,40,1,5,30,15,5,15,30,30,60,RR,60.05556313095718,
23,1,resp2,stim/right_resp_img.png,"[-0.5, 0]",right,stim/silver_coin.png,gold,,,,,training,,,silver,val,,,,,0.0,0.0,0.0,0.0,0.0,1.0,1.0,1.0,,,,,,,,,0.0,training_resp,,88.99289724836126,23.20615192549303,1.0,,right,silver,0.0,55,2,right,2021_Nov_22_1225,habits_v_MRI,5,40,1,5,30,15,5,15,30,30,60,RR,60.05556313095718,
23,1,resp2,stim/right_resp_img.png,"[-0.5, 0]",right,stim/silver_coin.png,gold,,,,,training,,,silver,val,,,,,0.0,0.0,0.0,0.0,0.0,1.0,1.0,1.0,,,,,,,,,0.0,training_resp,,89.4765664334409,23.689707037061453,1.0,,right,silver,0.0,55,2,right,2021_Nov_22_1225,habits_v_MRI,5,40,1,5,30,15,5,15,30,30,60,RR,60.05556313095718,
23,1,resp2,stim/right_resp_img.png,"[-0.5, 0]",right,stim/silver_coin.png,gold,,,,,training,,,silver,val,,,,,0.0,0.0,0.0,0.0,0.0,1.0,1.0,1.0,,,,,,,,,0.0,training_resp,,90.05981812160462,24.273116492666304,1.0,,right,silver,0.0,55,2,right,2021_Nov_22_1225,habits_v_MRI,5,40,1,5,30,15,5,15,30,30,60,RR,60.05556313095718,
23,1,resp2,stim/right_resp_img.png,"[-0.5, 0]",right,stim/silver_coin.png,gold,,,,,training,,,silver,val,,,,,0.0,0.0,0.0,0.0,0.0,1.0,1.0,1.0,,,,,,,,,0.0,training_resp,,90.51000428991392,24.72333315853029,1.0,,right,silver,0.0,55,2,right,2021_Nov_22_1225,habits_v_MRI,5,40,1,5,30,15,5,15,30,30,60,RR,60.05556313095718,
23,1,resp2,stim/right_resp_img.png,"[-0.5, 0]",right,stim/silver_coin.png,gold,,,,,training,,,silver,val,,,,,0.0,0.0,0.0,0.0,0.0,1.0,1.0,1.0,,,,,,,,,0.0,training_resp,,90.99355177721009,25.206823462620378,1.0,,right,silver,0.0,55,2,right,2021_Nov_22_1225,habits_v_MRI,5,40,1,5,30,15,5,15,30,30,60,RR,60.05556313095718,
23,1,resp2,stim/right_resp_img.png,"[-0.5, 0]",right,stim/silver_coin.png,gold,,,,,training,,,silver,val,,,,,0.0,0.0,0.0,0.0,0.0,1.0,1.0,1.0,,,,,,,,,0.0,training_resp,,91.42692928342149,25.64024378266185,1.0,,right,silver,0.0,55,2,right,2021_Nov_22_1225,habits_v_MRI,5,40,1,5,30,15,5,15,30,30,60,RR,60.05556313095718,
23,1,resp2,stim/right_resp_img.png,"[-0.5, 0]",right,stim/silver_coin.png,gold,,,,,training,,,silver,val,,,,,0.0,0.0,0.0,0.0,0.0,1.0,1.0,1.0,,,,,,,,,0.0,training_resp,,91.9270836780779,26.14043659297749,1.0,15.0,right,silver,1.0,55,2,right,2021_Nov_22_1225,habits_v_MRI,5,40,1,5,30,15,5,15,30,30,60,RR,60.05556313095718,
23,1,resp2,stim/right_resp_img.png,"[-0.5, 0]",right,stim/silver_coin.png,gold,,,,,training,,,silver,val,,,,,0.0,0.0,0.0,0.0,0.0,1.0,1.0,1.0,,,,,,,,,0.0,training_resp,,93.49457125272602,27.70770863024518,1.0,,right,silver,0.0,55,2,right,2021_Nov_22_1225,habits_v_MRI,5,40,1,5,30,15,5,15,30,30,60,RR,60.05556313095718,
23,1,resp2,stim/right_resp_img.png,"[-0.5, 0]",right,stim/silver_coin.png,gold,,,,,training,,,silver,val,,,,,0.0,0.0,0.0,0.0,0.0,1.0,1.0,1.0,,,,,,,,,0.0,training_resp,,93.96185962390156,28.17523365234956,1.0,,right,silver,0.0,55,2,right,2021_Nov_22_1225,habits_v_MRI,5,40,1,5,30,15,5,15,30,30,60,RR,60.05556313095718,
23,1,resp2,stim/right_resp_img.png,"[-0.5, 0]",right,stim/silver_coin.png,gold,,,,,training,,,silver,val,,,,,0.0,0.0,0.0,0.0,0.0,1.0,1.0,1.0,,,,,,,,,0.0,training_resp,,94.44525755476208,28.65859463438392,1.0,,right,silver,0.0,55,2,right,2021_Nov_22_1225,habits_v_MRI,5,40,1,5,30,15,5,15,30,30,60,RR,60.05556313095718,
23,1,resp2,stim/right_resp_img.png,"[-0.5, 0]",right,stim/silver_coin.png,gold,,,,,training,,,silver,val,,,,,0.0,0.0,0.0,0.0,0.0,1.0,1.0,1.0,,,,,,,,,0.0,training_resp,,94.9951631729491,29.20852605812252,1.0,,right,silver,0.0,55,2,right,2021_Nov_22_1225,habits_v_MRI,5,40,1,5,30,15,5,15,30,30,60,RR,60.05556313095718,
23,1,resp2,stim/right_resp_img.png,"[-0.5, 0]",right,stim/silver_coin.png,gold,,,,,training,,,silver,val,,,,,0.0,0.0,0.0,0.0,0.0,1.0,1.0,1.0,,,,,,,,,0.0,training_resp,,95.51180629665032,29.725153053179383,1.0,,right,silver,0.0,55,2,right,2021_Nov_22_1225,habits_v_MRI,5,40,1,5,30,15,5,15,30,30,60,RR,60.05556313095718,
23,1,resp2,stim/right_resp_img.png,"[-0.5, 0]",right,stim/silver_coin.png,gold,,,,,training,,,silver,val,,,,,0.0,0.0,0.0,0.0,0.0,1.0,1.0,1.0,,,,,,,,,0.0,training_resp,,96.01157859014349,30.224887224379927,1.0,,right,silver,0.0,55,2,right,2021_Nov_22_1225,habits_v_MRI,5,40,1,5,30,15,5,15,30,30,60,RR,60.05556313095718,
23,1,resp2,stim/right_resp_img.png,"[-0.5, 0]",right,stim/silver_coin.png,gold,,,,,training,,,silver,val,,,,,0.0,0.0,0.0,0.0,0.0,1.0,1.0,1.0,,,,,,,,,0.0,training_resp,,96.4615345587954,30.67484407313168,1.0,,right,silver,0.0,55,2,right,2021_Nov_22_1225,habits_v_MRI,5,40,1,5,30,15,5,15,30,30,60,RR,60.05556313095718,
23,1,resp2,stim/right_resp_img.png,"[-0.5, 0]",right,stim/silver_coin.png,gold,,,,,training,,,silver,val,,,,,0.0,0.0,0.0,0.0,0.0,1.0,1.0,1.0,,,,,,,,,0.0,training_resp,,96.97835187194868,31.19167575519532,1.0,,right,silver,0.0,55,2,right,2021_Nov_22_1225,habits_v_MRI,5,40,1,5,30,15,5,15,30,30,60,RR,60.05556313095718,
23,1,resp2,stim/right_resp_img.png,"[-0.5, 0]",right,stim/silver_coin.png,gold,,,,,training,,,silver,val,,,,,0.0,0.0,0.0,0.0,0.0,1.0,1.0,1.0,,,,,,,,,0.0,training_resp,,97.46198704000562,31.67519215820357,1.0,,right,silver,0.0,55,2,right,2021_Nov_22_1225,habits_v_MRI,5,40,1,5,30,15,5,15,30,30,60,RR,60.05556313095718,
23,1,resp2,stim/right_resp_img.png,"[-0.5, 0]",right,stim/silver_coin.png,gold,,,,,training,,,silver,val,,,,,0.0,0.0,0.0,0.0,0.0,1.0,1.0,1.0,,,,,,,,,0.0,training_resp,,97.92859009141102,32.14190195174888,1.0,,right,silver,0.0,55,2,right,2021_Nov_22_1225,habits_v_MRI,5,40,1,5,30,15,5,15,30,30,60,RR,60.05556313095718,
23,1,resp2,stim/right_resp_img.png,"[-0.5, 0]",right,stim/silver_coin.png,gold,,,,,training,,,silver,val,,,,,0.0,0.0,0.0,0.0,0.0,1.0,1.0,1.0,,,,,,,,,0.0,training_resp,,98.41214315034448,32.62551395315677,1.0,,right,silver,0.0,55,2,right,2021_Nov_22_1225,habits_v_MRI,5,40,1,5,30,15,5,15,30,30,60,RR,60.05556313095718,
23,1,resp2,stim/right_resp_img.png,"[-0.5, 0]",right,stim/silver_coin.png,gold,,,,,training,,,silver,val,,,,,0.0,0.0,0.0,0.0,0.0,1.0,1.0,1.0,,,,,,,,,0.0,training_resp,,98.87901276396587,33.092353362590075,1.0,,right,silver,0.0,55,2,right,2021_Nov_22_1225,habits_v_MRI,5,40,1,5,30,15,5,15,30,30,60,RR,60.05556313095718,
23,1,resp2,stim/right_resp_img.png,"[-0.5, 0]",right,stim/silver_coin.png,gold,,,,,training,,,silver,val,,,,,0.0,0.0,0.0,0.0,0.0,1.0,1.0,1.0,,,,,,,,,0.0,training_resp,,99.34576537180692,33.559087495319545,1.0,,right,silver,0.0,55,2,right,2021_Nov_22_1225,habits_v_MRI,5,40,1,5,30,15,5,15,30,30,60,RR,60.05556313095718,
23,1,resp2,stim/right_resp_img.png,"[-0.5, 0]",right,stim/silver_coin.png,gold,,,,,training,,,silver,val,,,,,0.0,0.0,0.0,0.0,0.0,1.0,1.0,1.0,,,,,,,,,0.0,training_resp,,99.82794720446692,34.04186608735472,1.0,,right,silver,0.0,55,2,right,2021_Nov_22_1225,habits_v_MRI,5,40,1,5,30,15,5,15,30,30,60,RR,60.05556313095718,
23,1,resp2,stim/right_resp_img.png,"[-0.5, 0]",right,stim/silver_coin.png,gold,,,,,training,,,silver,val,,,,,0.0,0.0,0.0,0.0,0.0,1.0,1.0,1.0,,,,,,,,,0.0,training_resp,,100.27869523549452,34.49238919746131,1.0,16.0,right,silver,1.0,55,2,right,2021_Nov_22_1225,habits_v_MRI,5,40,1,5,30,15,5,15,30,30,60,RR,60.05556313095718,
23,1,resp2,stim/right_resp_img.png,"[-0.5, 0]",right,stim/silver_coin.png,gold,,,,,training,,,silver,val,,,,,0.0,0.0,0.0,0.0,0.0,1.0,1.0,1.0,,,,,,,,,0.0,training_resp,,101.69637284893544,35.9097632993944,1.0,,right,silver,0.0,55,2,right,2021_Nov_22_1225,habits_v_MRI,5,40,1,5,30,15,5,15,30,30,60,RR,60.05556313095718,
23,1,resp2,stim/right_resp_img.png,"[-0.5, 0]",right,stim/silver_coin.png,gold,,,,,training,,,silver,val,,,,,0.0,0.0,0.0,0.0,0.0,1.0,1.0,1.0,,,,,,,,,0.0,training_resp,,102.2129367957823,36.42634044261649,1.0,,right,silver,0.0,55,2,right,2021_Nov_22_1225,habits_v_MRI,5,40,1,5,30,15,5,15,30,30,60,RR,60.05556313095718,
23,1,resp2,stim/right_resp_img.png,"[-0.5, 0]",right,stim/silver_coin.png,gold,,,,,training,,,silver,val,,,,,0.0,0.0,0.0,0.0,0.0,1.0,1.0,1.0,,,,,,,,,0.0,training_resp,,102.76316264038906,36.97657215222716,1.0,,right,silver,0.0,55,2,right,2021_Nov_22_1225,habits_v_MRI,5,40,1,5,30,15,5,15,30,30,60,RR,60.05556313095718,
23,1,resp2,stim/right_resp_img.png,"[-0.5, 0]",right,stim/silver_coin.png,gold,,,,,training,,,silver,val,,,,,0.0,0.0,0.0,0.0,0.0,1.0,1.0,1.0,,,,,,,,,0.0,training_resp,,103.24661922082304,37.46002521365881,1.0,,right,silver,0.0,55,2,right,2021_Nov_22_1225,habits_v_MRI,5,40,1,5,30,15,5,15,30,30,60,RR,60.05556313095718,
23,1,resp2,stim/right_resp_img.png,"[-0.5, 0]",right,stim/silver_coin.png,gold,,,,,training,,,silver,val,,,,,0.0,0.0,0.0,0.0,0.0,1.0,1.0,1.0,,,,,,,,,0.0,training_resp,,103.81346399663016,38.02688289200887,1.0,,right,silver,0.0,55,2,right,2021_Nov_22_1225,habits_v_MRI,5,40,1,5,30,15,5,15,30,30,60,RR,60.05556313095718,
23,1,resp2,stim/right_resp_img.png,"[-0.5, 0]",right,stim/silver_coin.png,gold,,,,,training,,,silver,val,,,,,0.0,0.0,0.0,0.0,0.0,1.0,1.0,1.0,,,,,,,,,0.0,training_resp,,104.3136312942952,38.52703552739695,1.0,,right,silver,0.0,55,2,right,2021_Nov_22_1225,habits_v_MRI,5,40,1,5,30,15,5,15,30,30,60,RR,60.05556313095718,
23,1,resp2,stim/right_resp_img.png,"[-0.5, 0]",right,stim/silver_coin.png,gold,,,,,training,,,silver,val,,,,,0.0,0.0,0.0,0.0,0.0,1.0,1.0,1.0,,,,,,,,,0.0,training_resp,,104.84705580817536,39.06046561291441,1.0,,right,silver,0.0,55,2,right,2021_Nov_22_1225,habits_v_MRI,5,40,1,5,30,15,5,15,30,30,60,RR,60.05556313095718,
23,1,resp2,stim/right_resp_img.png,"[-0.5, 0]",right,stim/silver_coin.png,gold,,,,,training,,,silver,val,,,,,0.0,0.0,0.0,0.0,0.0,1.0,1.0,1.0,,,,,,,,,0.0,training_resp,,105.36414466844872,39.577533652540296,1.0,,right,silver,0.0,55,2,right,2021_Nov_22_1225,habits_v_MRI,5,40,1,5,30,15,5,15,30,30,60,RR,60.05556313095718,
23,1,resp2,stim/right_resp_img.png,"[-0.5, 0]",right,stim/silver_coin.png,gold,,,,,training,,,silver,val,,,,,0.0,0.0,0.0,0.0,0.0,1.0,1.0,1.0,,,,,,,,,0.0,training_resp,,105.93094164459036,40.14434763696045,1.0,,right,silver,0.0,55,2,right,2021_Nov_22_1225,habits_v_MRI,5,40,1,5,30,15,5,15,30,30,60,RR,60.05556313095718,
23,1,resp2,stim/right_resp_img.png,"[-0.5, 0]",right,stim/silver_coin.png,gold,,,,,training,,,silver,val,,,,,0.0,0.0,0.0,0.0,0.0,1.0,1.0,1.0,,,,,,,,,0.0,training_resp,,106.41451464407146,40.627909200266,1.0,,right,silver,0.0,55,2,right,2021_Nov_22_1225,habits_v_MRI,5,40,1,5,30,15,5,15,30,30,60,RR,60.05556313095718,
23,1,resp2,stim/right_resp_img.png,"[-0.5, 0]",right,stim/silver_coin.png,gold,,,,,training,,,silver,val,,,,,0.0,0.0,0.0,0.0,0.0,1.0,1.0,1.0,,,,,,,,,0.0,training_resp,,107.0314038908109,41.24480607127771,1.0,,right,silver,0.0,55,2,right,2021_Nov_22_1225,habits_v_MRI,5,40,1,5,30,15,5,15,30,30,60,RR,60.05556313095718,
23,1,resp2,stim/right_resp_img.png,"[-0.5, 0]",right,stim/silver_coin.png,gold,,,,,training,,,silver,val,,,,,0.0,0.0,0.0,0.0,0.0,1.0,1.0,1.0,,,,,,,,,0.0,training_resp,,107.76483561843634,41.97823897190392,1.0,,right,silver,0.0,55,2,right,2021_Nov_22_1225,habits_v_MRI,5,40,1,5,30,15,5,15,30,30,60,RR,60.05556313095718,
23,1,resp2,stim/right_resp_img.png,"[-0.5, 0]",right,stim/silver_coin.png,gold,,,,,training,,,silver,val,,,,,0.0,0.0,0.0,0.0,0.0,1.0,1.0,1.0,,,,,,,,,0.0,training_resp,,108.08142343582584,42.294839985203,1.0,,right,silver,0.0,55,2,right,2021_Nov_22_1225,habits_v_MRI,5,40,1,5,30,15,5,15,30,30,60,RR,60.05556313095718,
23,1,resp2,stim/right_resp_img.png,"[-0.5, 0]",right,stim/silver_coin.png,gold,,,,,training,,,silver,val,,,,,0.0,0.0,0.0,0.0,0.0,1.0,1.0,1.0,,,,,,,,,0.0,training_resp,,108.64880221523345,42.86167918890715,1.0,,right,silver,0.0,55,2,right,2021_Nov_22_1225,habits_v_MRI,5,40,1,5,30,15,5,15,30,30,60,RR,60.05556313095718,
23,1,resp2,stim/right_resp_img.png,"[-0.5, 0]",right,stim/silver_coin.png,gold,,,,,training,,,silver,val,,,,,0.0,0.0,0.0,0.0,0.0,1.0,1.0,1.0,,,,,,,,,0.0,training_resp,,109.26507857395336,43.47848808579147,1.0,,right,silver,0.0,55,2,right,2021_Nov_22_1225,habits_v_MRI,5,40,1,5,30,15,5,15,30,30,60,RR,60.05556313095718,
23,1,resp2,stim/right_resp_img.png,"[-0.5, 0]",right,stim/silver_coin.png,gold,,,,,training,,,silver,val,,,,,0.0,0.0,0.0,0.0,0.0,1.0,1.0,1.0,,,,,,,,,0.0,training_resp,,109.46522126812488,43.67854837747291,1.0,14.0,right,silver,1.0,55,2,right,2021_Nov_22_1225,habits_v_MRI,5,40,1,5,30,15,5,15,30,30,60,RR,60.05556313095718,
23,1,resp2,stim/right_resp_img.png,"[-0.5, 0]",right,stim/silver_coin.png,gold,,,,,training,,,silver,val,,,,,0.0,0.0,0.0,0.0,0.0,1.0,1.0,1.0,,,,,,,,,0.0,ITI_start,23.333333333333336,110.46528314379977,44.67909733671695,,,,,,55,2,right,2021_Nov_22_1225,habits_v_MRI,5,40,1,5,30,15,5,15,30,30,60,RR,60.05556313095718,
23,0,resp1,stim/left_resp_img.png,"[0.5, 0]",left,stim/gold_coin.png,gold,,,,,training,,,gold,deval,,,,,0.0,0.0,0.0,0.0,1.0,0.0,2.0,0.0,,,,,,,,,0.0,training_period_start,37.5,133.82085031829774,0.0,2.0,15.0,,,,55,2,right,2021_Nov_22_1225,habits_v_MRI,5,40,1,5,30,15,5,15,30,30,60,RR,60.05556313095718,
23,0,resp1,stim/left_resp_img.png,"[0.5, 0]",left,stim/gold_coin.png,gold,,,,,training,,,gold,deval,,,,,0.0,0.0,0.0,0.0,1.0,0.0,2.0,0.0,,,,,,,,,0.0,training_resp,,134.67180983908474,0.8650823282077909,2.0,,left,gold,0.0,55,2,right,2021_Nov_22_1225,habits_v_MRI,5,40,1,5,30,15,5,15,30,30,60,RR,60.05556313095718,
23,0,resp1,stim/left_resp_img.png,"[0.5, 0]",left,stim/gold_coin.png,gold,,,,,training,,,gold,deval,,,,,0.0,0.0,0.0,0.0,1.0,0.0,2.0,0.0,,,,,,,,,0.0,training_resp,,135.15648779598996,1.34937085211277,2.0,,left,gold,0.0,55,2,right,2021_Nov_22_1225,habits_v_MRI,5,40,1,5,30,15,5,15,30,30,60,RR,60.05556313095718,
23,0,resp1,stim/left_resp_img.png,"[0.5, 0]",left,stim/gold_coin.png,gold,,,,,training,,,gold,deval,,,,,0.0,0.0,0.0,0.0,1.0,0.0,2.0,0.0,,,,,,,,,0.0,training_resp,,135.65644131647423,1.849327011499554,2.0,,left,gold,0.0,55,2,right,2021_Nov_22_1225,habits_v_MRI,5,40,1,5,30,15,5,15,30,30,60,RR,60.05556313095718,
23,0,resp1,stim/left_resp_img.png,"[0.5, 0]",left,stim/gold_coin.png,gold,,,,,training,,,gold,deval,,,,,0.0,0.0,0.0,0.0,1.0,0.0,2.0,0.0,,,,,,,,,0.0,training_resp,,136.12338541494682,2.3162479433231056,2.0,,left,gold,0.0,55,2,right,2021_Nov_22_1225,habits_v_MRI,5,40,1,5,30,15,5,15,30,30,60,RR,60.05556313095718,
23,0,resp1,stim/left_resp_img.png,"[0.5, 0]",left,stim/gold_coin.png,gold,,,,,training,,,gold,deval,,,,,0.0,0.0,0.0,0.0,1.0,0.0,2.0,0.0,,,,,,,,,0.0,training_resp,,136.62347558839247,2.8163301995955408,2.0,,left,gold,0.0,55,2,right,2021_Nov_22_1225,habits_v_MRI,5,40,1,5,30,15,5,15,30,30,60,RR,60.05556313095718,
23,0,resp1,stim/left_resp_img.png,"[0.5, 0]",left,stim/gold_coin.png,gold,,,,,training,,,gold,deval,,,,,0.0,0.0,0.0,0.0,1.0,0.0,2.0,0.0,,,,,,,,,0.0,training_resp,,137.10701633105054,3.299871235154569,2.0,,left,gold,0.0,55,2,right,2021_Nov_22_1225,habits_v_MRI,5,40,1,5,30,15,5,15,30,30,60,RR,60.05556313095718,
23,0,resp1,stim/left_resp_img.png,"[0.5, 0]",left,stim/gold_coin.png,gold,,,,,training,,,gold,deval,,,,,0.0,0.0,0.0,0.0,1.0,0.0,2.0,0.0,,,,,,,,,0.0,training_resp,,137.5739123369567,3.766712696757168,2.0,,left,gold,0.0,55,2,right,2021_Nov_22_1225,habits_v_MRI,5,40,1,5,30,15,5,15,30,30,60,RR,60.05556313095718,
23,0,resp1,stim/left_resp_img.png,"[0.5, 0]",left,stim/gold_coin.png,gold,,,,,training,,,gold,deval,,,,,0.0,0.0,0.0,0.0,1.0,0.0,2.0,0.0,,,,,,,,,0.0,training_resp,,138.04062770213932,4.233455627691001,2.0,,left,gold,0.0,55,2,right,2021_Nov_22_1225,habits_v_MRI,5,40,1,5,30,15,5,15,30,30,60,RR,60.05556313095718,
23,0,resp1,stim/left_resp_img.png,"[0.5, 0]",left,stim/gold_coin.png,gold,,,,,training,,,gold,deval,,,,,0.0,0.0,0.0,0.0,1.0,0.0,2.0,0.0,,,,,,,,,0.0,training_resp,,138.5408774027601,4.733636414632201,2.0,,left,gold,0.0,55,2,right,2021_Nov_22_1225,habits_v_MRI,5,40,1,5,30,15,5,15,30,30,60,RR,60.05556313095718,
23,0,resp1,stim/left_resp_img.png,"[0.5, 0]",left,stim/gold_coin.png,gold,,,,,training,,,gold,deval,,,,,0.0,0.0,0.0,0.0,1.0,0.0,2.0,0.0,,,,,,,,,0.0,training_resp,,139.05755190411583,5.250427335500717,2.0,,left,gold,0.0,55,2,right,2021_Nov_22_1225,habits_v_MRI,5,40,1,5,30,15,5,15,30,30,60,RR,60.05556313095718,
23,0,resp1,stim/left_resp_img.png,"[0.5, 0]",left,stim/gold_coin.png,gold,,,,,training,,,gold,deval,,,,,0.0,0.0,0.0,0.0,1.0,0.0,2.0,0.0,,,,,,,,,0.0,training_resp,,139.54124190937728,5.733940805774182,2.0,,left,gold,0.0,55,2,right,2021_Nov_22_1225,habits_v_MRI,5,40,1,5,30,15,5,15,30,30,60,RR,60.05556313095718,
23,0,resp1,stim/left_resp_img.png,"[0.5, 0]",left,stim/gold_coin.png,gold,,,,,training,,,gold,deval,,,,,0.0,0.0,0.0,0.0,1.0,0.0,2.0,0.0,,,,,,,,,0.0,training_resp,,139.97494785301387,6.167488981969655,2.0,,left,gold,0.0,55,2,right,2021_Nov_22_1225,habits_v_MRI,5,40,1,5,30,15,5,15,30,30,60,RR,60.05556313095718,
23,0,resp1,stim/left_resp_img.png,"[0.5, 0]",left,stim/gold_coin.png,gold,,,,,training,,,gold,deval,,,,,0.0,0.0,0.0,0.0,1.0,0.0,2.0,0.0,,,,,,,,,0.0,training_resp,,140.44192303577438,6.634507858660072,2.0,,left,gold,0.0,55,2,right,2021_Nov_22_1225,habits_v_MRI,5,40,1,5,30,15,5,15,30,30,60,RR,60.05556313095718,
23,0,resp1,stim/left_resp_img.png,"[0.5, 0]",left,stim/gold_coin.png,gold,,,,,training,,,gold,deval,,,,,0.0,0.0,0.0,0.0,1.0,0.0,2.0,0.0,,,,,,,,,0.0,training_resp,,140.89251593872905,7.085219233762473,2.0,,left,gold,0.0,55,2,right,2021_Nov_22_1225,habits_v_MRI,5,40,1,5,30,15,5,15,30,30,60,RR,60.05556313095718,
23,0,resp1,stim/left_resp_img.png,"[0.5, 0]",left,stim/gold_coin.png,gold,,,,,training,,,gold,deval,,,,,0.0,0.0,0.0,0.0,1.0,0.0,2.0,0.0,,,,,,,,,0.0,training_resp,,141.3425229326822,7.535198075696826,2.0,18.0,left,gold,1.0,55,2,right,2021_Nov_22_1225,habits_v_MRI,5,40,1,5,30,15,5,15,30,30,60,RR,60.05556313095718,
23,0,resp1,stim/left_resp_img.png,"[0.5, 0]",left,stim/gold_coin.png,gold,,,,,training,,,gold,deval,,,,,0.0,0.0,0.0,0.0,1.0,0.0,2.0,0.0,,,,,,,,,0.0,training_resp,,142.44180602999404,8.6348283784464,2.0,,left,gold,0.0,55,2,right,2021_Nov_22_1225,habits_v_MRI,5,40,1,5,30,15,5,15,30,30,60,RR,60.05556313095718,
23,0,resp1,stim/left_resp_img.png,"[0.5, 0]",left,stim/gold_coin.png,gold,,,,,training,,,gold,deval,,,,,0.0,0.0,0.0,0.0,1.0,0.0,2.0,0.0,,,,,,,,,0.0,training_resp,,142.8920825184323,9.084824229124932,2.0,,left,gold,0.0,55,2,right,2021_Nov_22_1225,habits_v_MRI,5,40,1,5,30,15,5,15,30,30,60,RR,60.05556313095718,
23,0,resp1,stim/left_resp_img.png,"[0.5, 0]",left,stim/gold_coin.png,gold,,,,,training,,,gold,deval,,,,,0.0,0.0,0.0,0.0,1.0,0.0,2.0,0.0,,,,,,,,,0.0,training_resp,,143.30897481460124,9.50166989909485,2.0,,left,gold,0.0,55,2,right,2021_Nov_22_1225,habits_v_MRI,5,40,1,5,30,15,5,15,30,30,60,RR,60.05556313095718,
23,0,resp1,stim/left_resp_img.png,"[0.5, 0]",left,stim/gold_coin.png,gold,,,,,training,,,gold,deval,,,,,0.0,0.0,0.0,0.0,1.0,0.0,2.0,0.0,,,,,,,,,0.0,training_resp,,143.72580904792994,9.91851732833311,2.0,,left,gold,0.0,55,2,right,2021_Nov_22_1225,habits_v_MRI,5,40,1,5,30,15,5,15,30,30,60,RR,60.05556313095718,
23,0,resp1,stim/left_resp_img.png,"[0.5, 0]",left,stim/gold_coin.png,gold,,,,,training,,,gold,deval,,,,,0.0,0.0,0.0,0.0,1.0,0.0,2.0,0.0,,,,,,,,,0.0,training_resp,,144.14262275397778,10.335294964723287,2.0,,left,gold,0.0,55,2,right,2021_Nov_22_1225,habits_v_MRI,5,40,1,5,30,15,5,15,30,30,60,RR,60.05556313095718,
23,0,resp1,stim/left_resp_img.png,"[0.5, 0]",left,stim/gold_coin.png,gold,,,,,training,,,gold,deval,,,,,0.0,0.0,0.0,0.0,1.0,0.0,2.0,0.0,,,,,,,,,0.0,training_resp,,144.55936285480857,10.752005154266952,2.0,,left,gold,0.0,55,2,right,2021_Nov_22_1225,habits_v_MRI,5,40,1,5,30,15,5,15,30,30,60,RR,60.05556313095718,
23,0,resp1,stim/left_resp_img.png,"[0.5, 0]",left,stim/gold_coin.png,gold,,,,,training,,,gold,deval,,,,,0.0,0.0,0.0,0.0,1.0,0.0,2.0,0.0,,,,,,,,,0.0,training_resp,,144.97611116664484,11.168766955379397,2.0,,left,gold,0.0,55,2,right,2021_Nov_22_1225,habits_v_MRI,5,40,1,5,30,15,5,15,30,30,60,RR,60.05556313095718,
23,0,resp1,stim/left_resp_img.png,"[0.5, 0]",left,stim/gold_coin.png,gold,,,,,training,,,gold,deval,,,,,0.0,0.0,0.0,0.0,1.0,0.0,2.0,0.0,,,,,,,,,0.0,training_resp,,145.3764206012711,11.56890278775245,2.0,,left,gold,0.0,55,2,right,2021_Nov_22_1225,habits_v_MRI,5,40,1,5,30,15,5,15,30,30,60,RR,60.05556313095718,
23,0,resp1,stim/left_resp_img.png,"[0.5, 0]",left,stim/gold_coin.png,gold,,,,,training,,,gold,deval,,,,,0.0,0.0,0.0,0.0,1.0,0.0,2.0,0.0,,,,,,,,,0.0,training_resp,,145.726361526642,11.919085055589676,2.0,,left,gold,0.0,55,2,right,2021_Nov_22_1225,habits_v_MRI,5,40,1,5,30,15,5,15,30,30,60,RR,60.05556313095718,
23,0,resp1,stim/left_resp_img.png,"[0.5, 0]",left,stim/gold_coin.png,gold,,,,,training,,,gold,deval,,,,,0.0,0.0,0.0,0.0,1.0,0.0,2.0,0.0,,,,,,,,,0.0,training_resp,,146.09323545079678,12.285910887643697,2.0,,left,gold,0.0,55,2,right,2021_Nov_22_1225,habits_v_MRI,5,40,1,5,30,15,5,15,30,30,60,RR,60.05556313095718,
23,0,resp1,stim/left_resp_img.png,"[0.5, 0]",left,stim/gold_coin.png,gold,,,,,training,,,gold,deval,,,,,0.0,0.0,0.0,0.0,1.0,0.0,2.0,0.0,,,,,,,,,0.0,training_resp,,146.4600598164834,12.652784518431872,2.0,,left,gold,0.0,55,2,right,2021_Nov_22_1225,habits_v_MRI,5,40,1,5,30,15,5,15,30,30,60,RR,60.05556313095718,
23,0,resp1,stim/left_resp_img.png,"[0.5, 0]",left,stim/gold_coin.png,gold,,,,,training,,,gold,deval,,,,,0.0,0.0,0.0,0.0,1.0,0.0,2.0,0.0,,,,,,,,,0.0,training_resp,,146.87667968589813,13.069390605203807,2.0,,left,gold,0.0,55,2,right,2021_Nov_22_1225,habits_v_MRI,5,40,1,5,30,15,5,15,30,30,60,RR,60.05556313095718,
23,0,resp1,stim/left_resp_img.png,"[0.5, 0]",left,stim/gold_coin.png,gold,,,,,training,,,gold,deval,,,,,0.0,0.0,0.0,0.0,1.0,0.0,2.0,0.0,,,,,,,,,0.0,training_resp,,147.2935145054944,13.486185249872506,2.0,,left,gold,0.0,55,2,right,2021_Nov_22_1225,habits_v_MRI,5,40,1,5,30,15,5,15,30,30,60,RR,60.05556313095718,
23,0,resp1,stim/left_resp_img.png,"[0.5, 0]",left,stim/gold_coin.png,gold,,,,,training,,,gold,deval,,,,,0.0,0.0,0.0,0.0,1.0,0.0,2.0,0.0,,,,,,,,,0.0,training_resp,,147.6937254089862,13.886459788307548,2.0,,left,gold,0.0,55,2,right,2021_Nov_22_1225,habits_v_MRI,5,40,1,5,30,15,5,15,30,30,60,RR,60.05556313095718,
23,0,resp1,stim/left_resp_img.png,"[0.5, 0]",left,stim/gold_coin.png,gold,,,,,training,,,gold,deval,,,,,0.0,0.0,0.0,0.0,1.0,0.0,2.0,0.0,,,,,,,,,0.0,training_resp,,148.0936137405224,14.286377444397658,2.0,,left,gold,0.0,55,2,right,2021_Nov_22_1225,habits_v_MRI,5,40,1,5,30,15,5,15,30,30,60,RR,60.05556313095718,
23,0,resp1,stim/left_resp_img.png,"[0.5, 0]",left,stim/gold_coin.png,gold,,,,,training,,,gold,deval,,,,,0.0,0.0,0.0,0.0,1.0,0.0,2.0,0.0,,,,,,,,,0.0,training_resp,,148.51046615513042,14.703200827818364,2.0,,left,gold,0.0,55,2,right,2021_Nov_22_1225,habits_v_MRI,5,40,1,5,30,15,5,15,30,30,60,RR,60.05556313095718,
23,0,resp1,stim/left_resp_img.png,"[0.5, 0]",left,stim/gold_coin.png,gold,,,,,training,,,gold,deval,,,,,0.0,0.0,0.0,0.0,1.0,0.0,2.0,0.0,,,,,,,,,0.0,training_resp,,148.94395480211824,15.136666308157146,2.0,,left,gold,0.0,55,2,right,2021_Nov_22_1225,habits_v_MRI,5,40,1,5,30,15,5,15,30,30,60,RR,60.05556313095718,
23,0,resp1,stim/left_resp_img.png,"[0.5, 0]",left,stim/gold_coin.png,gold,,,,,training,,,gold,deval,,,,,0.0,0.0,0.0,0.0,1.0,0.0,2.0,0.0,,,,,,,,,0.0,training_resp,,149.34406130947173,15.536801553796977,2.0,17.0,left,gold,1.0,55,2,right,2021_Nov_22_1225,habits_v_MRI,5,40,1,5,30,15,5,15,30,30,60,RR,60.05556313095718,
23,0,resp1,stim/left_resp_img.png,"[0.5, 0]",left,stim/gold_coin.png,gold,,,,,training,,,gold,deval,,,,,0.0,0.0,0.0,0.0,1.0,0.0,2.0,0.0,,,,,,,,,0.0,training_resp,,150.37770414631814,16.5704106669873,2.0,,left,gold,0.0,55,2,right,2021_Nov_22_1225,habits_v_MRI,5,40,1,5,30,15,5,15,30,30,60,RR,60.05556313095718,
23,0,resp1,stim/left_resp_img.png,"[0.5, 0]",left,stim/gold_coin.png,gold,,,,,training,,,gold,deval,,,,,0.0,0.0,0.0,0.0,1.0,0.0,2.0,0.0,,,,,,,,,0.0,training_resp,,150.7944580297917,16.987199740018696,2.0,,left,gold,0.0,55,2,right,2021_Nov_22_1225,habits_v_MRI,5,40,1,5,30,15,5,15,30,30,60,RR,60.05556313095718,
23,0,resp1,stim/left_resp_img.png,"[0.5, 0]",left,stim/gold_coin.png,gold,,,,,training,,,gold,deval,,,,,0.0,0.0,0.0,0.0,1.0,0.0,2.0,0.0,,,,,,,,,0.0,training_resp,,151.1279240087606,17.3206677720882,2.0,,left,gold,0.0,55,2,right,2021_Nov_22_1225,habits_v_MRI,5,40,1,5,30,15,5,15,30,30,60,RR,60.05556313095718,
23,0,resp1,stim/left_resp_img.png,"[0.5, 0]",left,stim/gold_coin.png,gold,,,,,training,,,gold,deval,,,,,0.0,0.0,0.0,0.0,1.0,0.0,2.0,0.0,,,,,,,,,0.0,training_resp,,151.46133661689237,17.654080086853355,2.0,,left,gold,0.0,55,2,right,2021_Nov_22_1225,habits_v_MRI,5,40,1,5,30,15,5,15,30,30,60,RR,60.05556313095718,
23,0,resp1,stim/left_resp_img.png,"[0.5, 0]",left,stim/gold_coin.png,gold,,,,,training,,,gold,deval,,,,,0.0,0.0,0.0,0.0,1.0,0.0,2.0,0.0,,,,,,,,,0.0,training_resp,,151.7613940639421,17.954134014900774,2.0,,left,gold,0.0,55,2,right,2021_Nov_22_1225,habits_v_MRI,5,40,1,5,30,15,5,15,30,30,60,RR,60.05556313095718,
23,0,resp1,stim/left_resp_img.png,"[0.5, 0]",left,stim/gold_coin.png,gold,,,,,training,,,gold,deval,,,,,0.0,0.0,0.0,0.0,1.0,0.0,2.0,0.0,,,,,,,,,0.0,training_resp,,152.02826144872233,18.220905801281333,2.0,,left,gold,0.0,55,2,right,2021_Nov_22_1225,habits_v_MRI,5,40,1,5,30,15,5,15,30,30,60,RR,60.05556313095718,
23,0,resp1,stim/left_resp_img.png,"[0.5, 0]",left,stim/gold_coin.png,gold,,,,,training,,,gold,deval,,,,,0.0,0.0,0.0,0.0,1.0,0.0,2.0,0.0,,,,,,,,,0.0,training_resp,,152.29499306017533,18.487714243121445,2.0,,left,gold,0.0,55,2,right,2021_Nov_22_1225,habits_v_MRI,5,40,1,5,30,15,5,15,30,30,60,RR,60.05556313095718,
23,0,resp1,stim/left_resp_img.png,"[0.5, 0]",left,stim/gold_coin.png,gold,,,,,training,,,gold,deval,,,,,0.0,0.0,0.0,0.0,1.0,0.0,2.0,0.0,,,,,,,,,0.0,training_resp,,152.54510163515806,18.73786299303174,2.0,,left,gold,0.0,55,2,right,2021_Nov_22_1225,habits_v_MRI,5,40,1,5,30,15,5,15,30,30,60,RR,60.05556313095718,
23,0,resp1,stim/left_resp_img.png,"[0.5, 0]",left,stim/gold_coin.png,gold,,,,,training,,,gold,deval,,,,,0.0,0.0,0.0,0.0,1.0,0.0,2.0,0.0,,,,,,,,,0.0,training_resp,,152.81173647474498,19.0044902083464,2.0,,left,gold,0.0,55,2,right,2021_Nov_22_1225,habits_v_MRI,5,40,1,5,30,15,5,15,30,30,60,RR,60.05556313095718,
23,0,resp1,stim/left_resp_img.png,"[0.5, 0]",left,stim/gold_coin.png,gold,,,,,training,,,gold,deval,,,,,0.0,0.0,0.0,0.0,1.0,0.0,2.0,0.0,,,,,,,,,0.0,training_resp,,153.06185941863805,19.25462957425043,2.0,,left,gold,0.0,55,2,right,2021_Nov_22_1225,habits_v_MRI,5,40,1,5,30,15,5,15,30,30,60,RR,60.05556313095718,
23,0,resp1,stim/left_resp_img.png,"[0.5, 0]",left,stim/gold_coin.png,gold,,,,,training,,,gold,deval,,,,,0.0,0.0,0.0,0.0,1.0,0.0,2.0,0.0,,,,,,,,,0.0,training_resp,,153.32860891800374,19.5213350863196,2.0,,left,gold,0.0,55,2,right,2021_Nov_22_1225,habits_v_MRI,5,40,1,5,30,15,5,15,30,30,60,RR,60.05556313095718,
23,0,resp1,stim/left_resp_img.png,"[0.5, 0]",left,stim/gold_coin.png,gold,,,,,training,,,gold,deval,,,,,0.0,0.0,0.0,0.0,1.0,0.0,2.0,0.0,,,,,,,,,0.0,training_resp,,153.6120990458876,19.80486450949684,2.0,,left,gold,0.0,55,2,right,2021_Nov_22_1225,habits_v_MRI,5,40,1,5,30,15,5,15,30,30,60,RR,60.05556313095718,
23,0,resp1,stim/left_resp_img.png,"[0.5, 0]",left,stim/gold_coin.png,gold,,,,,training,,,gold,deval,,,,,0.0,0.0,0.0,0.0,1.0,0.0,2.0,0.0,,,,,,,,,0.0,training_resp,,153.91217702068388,20.104818440508097,2.0,,left,gold,0.0,55,2,right,2021_Nov_22_1225,habits_v_MRI,5,40,1,5,30,15,5,15,30,30,60,RR,60.05556313095718,
23,0,resp1,stim/left_resp_img.png,"[0.5, 0]",left,stim/gold_coin.png,gold,,,,,training,,,gold,deval,,,,,0.0,0.0,0.0,0.0,1.0,0.0,2.0,0.0,,,,,,,,,0.0,training_resp,,154.22882847255096,20.42156725050881,2.0,,left,gold,0.0,55,2,right,2021_Nov_22_1225,habits_v_MRI,5,40,1,5,30,15,5,15,30,30,60,RR,60.05556313095718,
23,0,resp1,stim/left_resp_img.png,"[0.5, 0]",left,stim/gold_coin.png,gold,,,,,training,,,gold,deval,,,,,0.0,0.0,0.0,0.0,1.0,0.0,2.0,0.0,,,,,,,,,0.0,training_resp,,154.5627765506506,20.755087187048048,2.0,,left,gold,0.0,55,2,right,2021_Nov_22_1225,habits_v_MRI,5,40,1,5,30,15,5,15,30,30,60,RR,60.05556313095718,
23,0,resp1,stim/left_resp_img.png,"[0.5, 0]",left,stim/gold_coin.png,gold,,,,,training,,,gold,deval,,,,,0.0,0.0,0.0,0.0,1.0,0.0,2.0,0.0,,,,,,,,,0.0,training_resp,,154.8624023371376,21.055130558554083,2.0,,left,gold,0.0,55,2,right,2021_Nov_22_1225,habits_v_MRI,5,40,1,5,30,15,5,15,30,30,60,RR,60.05556313095718,
23,0,resp1,stim/left_resp_img.png,"[0.5, 0]",left,stim/gold_coin.png,gold,,,,,training,,,gold,deval,,,,,0.0,0.0,0.0,0.0,1.0,0.0,2.0,0.0,,,,,,,,,0.0,training_resp,,155.16250025248155,21.35524401580915,2.0,18.0,left,gold,1.0,55,2,right,2021_Nov_22_1225,habits_v_MRI,5,40,1,5,30,15,5,15,30,30,60,RR,60.05556313095718,
23,0,resp1,stim/left_resp_img.png,"[0.5, 0]",left,stim/gold_coin.png,gold,,,,,training,,,gold,deval,,,,,0.0,0.0,0.0,0.0,1.0,0.0,2.0,0.0,,,,,,,,,0.0,training_resp,,156.12951194494963,22.322250429540876,2.0,,left,gold,0.0,55,2,right,2021_Nov_22_1225,habits_v_MRI,5,40,1,5,30,15,5,15,30,30,60,RR,60.05556313095718,
23,0,resp1,stim/left_resp_img.png,"[0.5, 0]",left,stim/gold_coin.png,gold,,,,,training,,,gold,deval,,,,,0.0,0.0,0.0,0.0,1.0,0.0,2.0,0.0,,,,,,,,,0.0,training_resp,,156.3796290238388,22.572388329077512,2.0,,left,gold,0.0,55,2,right,2021_Nov_22_1225,habits_v_MRI,5,40,1,5,30,15,5,15,30,30,60,RR,60.05556313095718,
23,0,resp1,stim/left_resp_img.png,"[0.5, 0]",left,stim/gold_coin.png,gold,,,,,training,,,gold,deval,,,,,0.0,0.0,0.0,0.0,1.0,0.0,2.0,0.0,,,,,,,,,0.0,training_resp,,156.6129567953758,22.80572929698974,2.0,,left,gold,0.0,55,2,right,2021_Nov_22_1225,habits_v_MRI,5,40,1,5,30,15,5,15,30,30,60,RR,60.05556313095718,
23,0,resp1,stim/left_resp_img.png,"[0.5, 0]",left,stim/gold_coin.png,gold,,,,,training,,,gold,deval,,,,,0.0,0.0,0.0,0.0,1.0,0.0,2.0,0.0,,,,,,,,,0.0,training_resp,,156.86298560677096,23.055719692725688,2.0,,left,gold,0.0,55,2,right,2021_Nov_22_1225,habits_v_MRI,5,40,1,5,30,15,5,15,30,30,60,RR,60.05556313095718,
23,0,resp1,stim/left_resp_img.png,"[0.5, 0]",left,stim/gold_coin.png,gold,,,,,training,,,gold,deval,,,,,0.0,0.0,0.0,0.0,1.0,0.0,2.0,0.0,,,,,,,,,0.0,training_resp,,157.1296195667237,23.322389722336084,2.0,,left,gold,0.0,55,2,right,2021_Nov_22_1225,habits_v_MRI,5,40,1,5,30,15,5,15,30,30,60,RR,60.05556313095718,
23,0,resp1,stim/left_resp_img.png,"[0.5, 0]",left,stim/gold_coin.png,gold,,,,,training,,,gold,deval,,,,,0.0,0.0,0.0,0.0,1.0,0.0,2.0,0.0,,,,,,,,,0.0,training_resp,,157.37981347646564,23.57256193179637,2.0,,left,gold,0.0,55,2,right,2021_Nov_22_1225,habits_v_MRI,5,40,1,5,30,15,5,15,30,30,60,RR,60.05556313095718,
23,0,resp1,stim/left_resp_img.png,"[0.5, 0]",left,stim/gold_coin.png,gold,,,,,training,,,gold,deval,,,,,0.0,0.0,0.0,0.0,1.0,0.0,2.0,0.0,,,,,,,,,0.0,training_resp,,157.64654420828447,23.83932140143588,2.0,,left,gold,0.0,55,2,right,2021_Nov_22_1225,habits_v_MRI,5,40,1,5,30,15,5,15,30,30,60,RR,60.05556313095718,
23,0,resp1,stim/left_resp_img.png,"[0.5, 0]",left,stim/gold_coin.png,gold,,,,,training,,,gold,deval,,,,,0.0,0.0,0.0,0.0,1.0,0.0,2.0,0.0,,,,,,,,,0.0,training_resp,,157.93048417801035,24.122847012709823,2.0,,left,gold,0.0,55,2,right,2021_Nov_22_1225,habits_v_MRI,5,40,1,5,30,15,5,15,30,30,60,RR,60.05556313095718,
23,0,resp1,stim/left_resp_img.png,"[0.5, 0]",left,stim/gold_coin.png,gold,,,,,training,,,gold,deval,,,,,0.0,0.0,0.0,0.0,1.0,0.0,2.0,0.0,,,,,,,,,0.0,training_resp,,158.18004643265158,24.372792834881693,2.0,,left,gold,0.0,55,2,right,2021_Nov_22_1225,habits_v_MRI,5,40,1,5,30,15,5,15,30,30,60,RR,60.05556313095718,
23,0,resp1,stim/left_resp_img.png,"[0.5, 0]",left,stim/gold_coin.png,gold,,,,,training,,,gold,deval,,,,,0.0,0.0,0.0,0.0,1.0,0.0,2.0,0.0,,,,,,,,,0.0,training_resp,,158.44691029842943,24.63964526448399,2.0,,left,gold,0.0,55,2,right,2021_Nov_22_1225,habits_v_MRI,5,40,1,5,30,15,5,15,30,30,60,RR,60.05556313095718,
23,0,resp1,stim/left_resp_img.png,"[0.5, 0]",left,stim/gold_coin.png,gold,,,,,training,,,gold,deval,,,,,0.0,0.0,0.0,0.0,1.0,0.0,2.0,0.0,,,,,,,,,0.0,training_resp,,158.73024265933782,24.9229749860242,2.0,,left,gold,0.0,55,2,right,2021_Nov_22_1225,habits_v_MRI,5,40,1,5,30,15,5,15,30,30,60,RR,60.05556313095718,
23,0,resp1,stim/left_resp_img.png,"[0.5, 0]",left,stim/gold_coin.png,gold,,,,,training,,,gold,deval,,,,,0.0,0.0,0.0,0.0,1.0,0.0,2.0,0.0,,,,,,,,,0.0,training_resp,,159.0135154905729,25.206292977556583,2.0,,left,gold,0.0,55,2,right,2021_Nov_22_1225,habits_v_MRI,5,40,1,5,30,15,5,15,30,30,60,RR,60.05556313095718,
23,0,resp1,stim/left_resp_img.png,"[0.5, 0]",left,stim/gold_coin.png,gold,,,,,training,,,gold,deval,,,,,0.0,0.0,0.0,0.0,1.0,0.0,2.0,0.0,,,,,,,,,0.0,training_resp,,159.26368095586076,25.456414455082268,2.0,,left,gold,0.0,55,2,right,2021_Nov_22_1225,habits_v_MRI,5,40,1,5,30,15,5,15,30,30,60,RR,60.05556313095718,
23,0,resp1,stim/left_resp_img.png,"[0.5, 0]",left,stim/gold_coin.png,gold,,,,,training,,,gold,deval,,,,,0.0,0.0,0.0,0.0,1.0,0.0,2.0,0.0,,,,,,,,,0.0,training_resp,,159.53062077285722,25.723202663473785,2.0,,left,gold,0.0,55,2,right,2021_Nov_22_1225,habits_v_MRI,5,40,1,5,30,15,5,15,30,30,60,RR,60.05556313095718,
23,0,resp1,stim/left_resp_img.png,"[0.5, 0]",left,stim/gold_coin.png,gold,,,,,training,,,gold,deval,,,,,0.0,0.0,0.0,0.0,1.0,0.0,2.0,0.0,,,,,,,,,0.0,training_resp,,159.81392791401595,26.00654646055773,2.0,,left,gold,0.0,55,2,right,2021_Nov_22_1225,habits_v_MRI,5,40,1,5,30,15,5,15,30,30,60,RR,60.05556313095718,
23,0,resp1,stim/left_resp_img.png,"[0.5, 0]",left,stim/gold_coin.png,gold,,,,,training,,,gold,deval,,,,,0.0,0.0,0.0,0.0,1.0,0.0,2.0,0.0,,,,,,,,,0.0,training_resp,,160.11399239953607,26.306719447486103,2.0,,left,gold,0.0,55,2,right,2021_Nov_22_1225,habits_v_MRI,5,40,1,5,30,15,5,15,30,30,60,RR,60.05556313095718,
23,0,resp1,stim/left_resp_img.png,"[0.5, 0]",left,stim/gold_coin.png,gold,,,,,training,,,gold,deval,,,,,0.0,0.0,0.0,0.0,1.0,0.0,2.0,0.0,,,,,,,,,0.0,training_resp,,160.41400468628854,26.60677073663101,2.0,,left,gold,0.0,55,2,right,2021_Nov_22_1225,habits_v_MRI,5,40,1,5,30,15,5,15,30,30,60,RR,60.05556313095718,
23,0,resp1,stim/left_resp_img.png,"[0.5, 0]",left,stim/gold_coin.png,gold,,,,,training,,,gold,deval,,,,,0.0,0.0,0.0,0.0,1.0,0.0,2.0,0.0,,,,,,,,,0.0,training_resp,,160.68075418565422,26.873525514267385,2.0,21.0,left,gold,1.0,55,2,right,2021_Nov_22_1225,habits_v_MRI,5,40,1,5,30,15,5,15,30,30,60,RR,60.05556313095718,
23,0,resp1,stim/left_resp_img.png,"[0.5, 0]",left,stim/gold_coin.png,gold,,,,,training,,,gold,deval,,,,,0.0,0.0,0.0,0.0,1.0,0.0,2.0,0.0,,,,,,,,,0.0,training_resp,,161.51438658265397,27.707128293346614,2.0,,left,gold,0.0,55,2,right,2021_Nov_22_1225,habits_v_MRI,5,40,1,5,30,15,5,15,30,30,60,RR,60.05556313095718,
23,0,resp1,stim/left_resp_img.png,"[0.5, 0]",left,stim/gold_coin.png,gold,,,,,training,,,gold,deval,,,,,0.0,0.0,0.0,0.0,1.0,0.0,2.0,0.0,,,,,,,,,0.0,training_resp,,161.84779977751896,28.04054500674829,2.0,,left,gold,0.0,55,2,right,2021_Nov_22_1225,habits_v_MRI,5,40,1,5,30,15,5,15,30,30,60,RR,60.05556313095718,
23,0,resp1,stim/left_resp_img.png,"[0.5, 0]",left,stim/gold_coin.png,gold,,,,,training,,,gold,deval,,,,,0.0,0.0,0.0,0.0,1.0,0.0,2.0,0.0,,,,,,,,,0.0,training_resp,,162.08118209289387,28.273950488772243,2.0,,left,gold,0.0,55,2,right,2021_Nov_22_1225,habits_v_MRI,5,40,1,5,30,15,5,15,30,30,60,RR,60.05556313095718,
23,0,resp1,stim/left_resp_img.png,"[0.5, 0]",left,stim/gold_coin.png,gold,,,,,training,,,gold,deval,,,,,0.0,0.0,0.0,0.0,1.0,0.0,2.0,0.0,,,,,,,,,0.0,training_resp,,162.33134990371764,28.524115660693496,2.0,,left,gold,0.0,55,2,right,2021_Nov_22_1225,habits_v_MRI,5,40,1,5,30,15,5,15,30,30,60,RR,60.05556313095718,
23,0,resp1,stim/left_resp_img.png,"[0.5, 0]",left,stim/gold_coin.png,gold,,,,,training,,,gold,deval,,,,,0.0,0.0,0.0,0.0,1.0,0.0,2.0,0.0,,,,,,,,,0.0,training_resp,,162.63150382926688,28.824240554589775,2.0,,left,gold,0.0,55,2,right,2021_Nov_22_1225,habits_v_MRI,5,40,1,5,30,15,5,15,30,30,60,RR,60.05556313095718,
23,0,resp1,stim/left_resp_img.png,"[0.5, 0]",left,stim/gold_coin.png,gold,,,,,training,,,gold,deval,,,,,0.0,0.0,0.0,0.0,1.0,0.0,2.0,0.0,,,,,,,,,0.0,training_resp,,162.9148517320864,29.107625113334507,2.0,,left,gold,0.0,55,2,right,2021_Nov_22_1225,habits_v_MRI,5,40,1,5,30,15,5,15,30,30,60,RR,60.05556313095718,
23,0,resp1,stim/left_resp_img.png,"[0.5, 0]",left,stim/gold_coin.png,gold,,,,,training,,,gold,deval,,,,,0.0,0.0,0.0,0.0,1.0,0.0,2.0,0.0,,,,,,,,,0.0,training_resp,,163.2483268021606,29.44105355674401,2.0,,left,gold,0.0,55,2,right,2021_Nov_22_1225,habits_v_MRI,5,40,1,5,30,15,5,15,30,30,60,RR,60.05556313095718,
23,0,resp1,stim/left_resp_img.png,"[0.5, 0]",left,stim/gold_coin.png,gold,,,,,training,,,gold,deval,,,,,0.0,0.0,0.0,0.0,1.0,0.0,2.0,0.0,,,,,,,,,0.0,training_resp,,163.58175465883687,29.774518949445337,2.0,,left,gold,0.0,55,2,right,2021_Nov_22_1225,habits_v_MRI,5,40,1,5,30,15,5,15,30,30,60,RR,60.05556313095718,
23,0,resp1,stim/left_resp_img.png,"[0.5, 0]",left,stim/gold_coin.png,gold,,,,,training,,,gold,deval,,,,,0.0,0.0,0.0,0.0,1.0,0.0,2.0,0.0,,,,,,,,,0.0,training_resp,,163.9317577527836,30.12451676465571,2.0,,left,gold,0.0,55,2,right,2021_Nov_22_1225,habits_v_MRI,5,40,1,5,30,15,5,15,30,30,60,RR,60.05556313095718,
23,0,resp1,stim/left_resp_img.png,"[0.5, 0]",left,stim/gold_coin.png,gold,,,,,training,,,gold,deval,,,,,0.0,0.0,0.0,0.0,1.0,0.0,2.0,0.0,,,,,,,,,0.0,training_resp,,164.2651395695284,30.45789271686226,2.0,,left,gold,0.0,55,2,right,2021_Nov_22_1225,habits_v_MRI,5,40,1,5,30,15,5,15,30,30,60,RR,60.05556313095718,
23,0,resp1,stim/left_resp_img.png,"[0.5, 0]",left,stim/gold_coin.png,gold,,,,,training,,,gold,deval,,,,,0.0,0.0,0.0,0.0,1.0,0.0,2.0,0.0,,,,,,,,,0.0,training_resp,,164.56535859638825,30.75809092260897,2.0,,left,gold,0.0,55,2,right,2021_Nov_22_1225,habits_v_MRI,5,40,1,5,30,15,5,15,30,30,60,RR,60.05556313095718,
23,0,resp1,stim/left_resp_img.png,"[0.5, 0]",left,stim/gold_coin.png,gold,,,,,training,,,gold,deval,,,,,0.0,0.0,0.0,0.0,1.0,0.0,2.0,0.0,,,,,,,,,0.0,training_resp,,164.88230652175844,31.075029171071947,2.0,,left,gold,0.0,55,2,right,2021_Nov_22_1225,habits_v_MRI,5,40,1,5,30,15,5,15,30,30,60,RR,60.05556313095718,
23,0,resp1,stim/left_resp_img.png,"[0.5, 0]",left,stim/gold_coin.png,gold,,,,,training,,,gold,deval,,,,,0.0,0.0,0.0,0.0,1.0,0.0,2.0,0.0,,,,,,,,,0.0,training_resp,,165.21541913738474,31.408170817885548,2.0,,left,gold,0.0,55,2,right,2021_Nov_22_1225,habits_v_MRI,5,40,1,5,30,15,5,15,30,30,60,RR,60.05556313095718,
23,0,resp1,stim/left_resp_img.png,"[0.5, 0]",left,stim/gold_coin.png,gold,,,,,training,,,gold,deval,,,,,0.0,0.0,0.0,0.0,1.0,0.0,2.0,0.0,,,,,,,,,0.0,training_resp,,165.56560345785692,31.758362176828086,2.0,,left,gold,0.0,55,2,right,2021_Nov_22_1225,habits_v_MRI,5,40,1,5,30,15,5,15,30,30,60,RR,60.05556313095718,
23,0,resp1,stim/left_resp_img.png,"[0.5, 0]",left,stim/gold_coin.png,gold,,,,,training,,,gold,deval,,,,,0.0,0.0,0.0,0.0,1.0,0.0,2.0,0.0,,,,,,,,,0.0,training_resp,,165.89903102163225,32.09178328886628,2.0,,left,gold,0.0,55,2,right,2021_Nov_22_1225,habits_v_MRI,5,40,1,5,30,15,5,15,30,30,60,RR,60.05556313095718,
23,0,resp1,stim/left_resp_img.png,"[0.5, 0]",left,stim/gold_coin.png,gold,,,,,training,,,gold,deval,,,,,0.0,0.0,0.0,0.0,1.0,0.0,2.0,0.0,,,,,,,,,0.0,training_resp,,166.23256180854514,32.42526539647952,2.0,,left,gold,0.0,55,2,right,2021_Nov_22_1225,habits_v_MRI,5,40,1,5,30,15,5,15,30,30,60,RR,60.05556313095718,
23,0,resp1,stim/left_resp_img.png,"[0.5, 0]",left,stim/gold_coin.png,gold,,,,,training,,,gold,deval,,,,,0.0,0.0,0.0,0.0,1.0,0.0,2.0,0.0,,,,,,,,,0.0,training_resp,,166.58262882987037,32.77532303426415,2.0,,left,gold,0.0,55,2,right,2021_Nov_22_1225,habits_v_MRI,5,40,1,5,30,15,5,15,30,30,60,RR,60.05556313095718,
23,0,resp1,stim/left_resp_img.png,"[0.5, 0]",left,stim/gold_coin.png,gold,,,,,training,,,gold,deval,,,,,0.0,0.0,0.0,0.0,1.0,0.0,2.0,0.0,,,,,,,,,0.0,training_resp,,166.9494083286263,33.14210810465738,2.0,,left,gold,0.0,55,2,right,2021_Nov_22_1225,habits_v_MRI,5,40,1,5,30,15,5,15,30,30,60,RR,60.05556313095718,
23,0,resp1,stim/left_resp_img.png,"[0.5, 0]",left,stim/gold_coin.png,gold,,,,,training,,,gold,deval,,,,,0.0,0.0,0.0,0.0,1.0,0.0,2.0,0.0,,,,,,,,,0.0,training_resp,,167.28291858825833,33.47561631165445,2.0,,left,gold,0.0,55,2,right,2021_Nov_22_1225,habits_v_MRI,5,40,1,5,30,15,5,15,30,30,60,RR,60.05556313095718,
23,0,resp1,stim/left_resp_img.png,"[0.5, 0]",left,stim/gold_coin.png,gold,,,,,training,,,gold,deval,,,,,0.0,0.0,0.0,0.0,1.0,0.0,2.0,0.0,,,,,,,,,0.0,training_resp,,167.64961803006008,33.842333348467946,2.0,,left,gold,0.0,55,2,right,2021_Nov_22_1225,habits_v_MRI,5,40,1,5,30,15,5,15,30,30,60,RR,60.05556313095718,
23,0,resp1,stim/left_resp_img.png,"[0.5, 0]",left,stim/gold_coin.png,gold,,,,,training,,,gold,deval,,,,,0.0,0.0,0.0,0.0,1.0,0.0,2.0,0.0,,,,,,,,,0.0,training_resp,,168.016473186668,34.20910962112248,2.0,17.0,left,gold,1.0,55,2,right,2021_Nov_22_1225,habits_v_MRI,5,40,1,5,30,15,5,15,30,30,60,RR,60.05556313095718,
23,0,resp1,stim/left_resp_img.png,"[0.5, 0]",left,stim/gold_coin.png,gold,,,,,training,,,gold,deval,,,,,0.0,0.0,0.0,0.0,1.0,0.0,2.0,0.0,,,,,,,,,0.0,training_resp,,168.86676410306245,35.05946915736422,2.0,,left,gold,0.0,55,2,right,2021_Nov_22_1225,habits_v_MRI,5,40,1,5,30,15,5,15,30,30,60,RR,60.05556313095718,
23,0,resp1,stim/left_resp_img.png,"[0.5, 0]",left,stim/gold_coin.png,gold,,,,,training,,,gold,deval,,,,,0.0,0.0,0.0,0.0,1.0,0.0,2.0,0.0,,,,,,,,,0.0,training_resp,,169.20028491923586,35.39277150435373,2.0,,left,gold,0.0,55,2,right,2021_Nov_22_1225,habits_v_MRI,5,40,1,5,30,15,5,15,30,30,60,RR,60.05556313095718,
23,0,resp1,stim/left_resp_img.png,"[0.5, 0]",left,stim/gold_coin.png,gold,,,,,training,,,gold,deval,,,,,0.0,0.0,0.0,0.0,1.0,0.0,2.0,0.0,,,,,,,,,0.0,training_resp,,169.55028185481206,35.74295465182513,2.0,,left,gold,0.0,55,2,right,2021_Nov_22_1225,habits_v_MRI,5,40,1,5,30,15,5,15,30,30,60,RR,60.05556313095718,
23,0,resp1,stim/left_resp_img.png,"[0.5, 0]",left,stim/gold_coin.png,gold,,,,,training,,,gold,deval,,,,,0.0,0.0,0.0,0.0,1.0,0.0,2.0,0.0,,,,,,,,,0.0,training_resp,,169.9171988866292,36.10980863543227,2.0,,left,gold,0.0,55,2,right,2021_Nov_22_1225,habits_v_MRI,5,40,1,5,30,15,5,15,30,30,60,RR,60.05556313095718,
23,0,resp1,stim/left_resp_img.png,"[0.5, 0]",left,stim/gold_coin.png,gold,,,,,training,,,gold,deval,,,,,0.0,0.0,0.0,0.0,1.0,0.0,2.0,0.0,,,,,,,,,0.0,training_resp,,170.2838203245774,36.47649869369343,2.0,,left,gold,0.0,55,2,right,2021_Nov_22_1225,habits_v_MRI,5,40,1,5,30,15,5,15,30,30,60,RR,60.05556313095718,
23,0,resp1,stim/left_resp_img.png,"[0.5, 0]",left,stim/gold_coin.png,gold,,,,,training,,,gold,deval,,,,,0.0,0.0,0.0,0.0,1.0,0.0,2.0,0.0,,,,,,,,,0.0,training_resp,,170.70058124605566,36.893252870067954,2.0,,left,gold,0.0,55,2,right,2021_Nov_22_1225,habits_v_MRI,5,40,1,5,30,15,5,15,30,30,60,RR,60.05556313095718,
23,0,resp1,stim/left_resp_img.png,"[0.5, 0]",left,stim/gold_coin.png,gold,,,,,training,,,gold,deval,,,,,0.0,0.0,0.0,0.0,1.0,0.0,2.0,0.0,,,,,,,,,0.0,ITI_start,15.0,170.98509040940553,37.17663478991017,,,,,,55,2,right,2021_Nov_22_1225,habits_v_MRI,5,40,1,5,30,15,5,15,30,30,60,RR,60.05556313095718,
23,1,resp2,stim/right_resp_img.png,"[-0.5, 0]",right,stim/silver_coin.png,gold,,,,,training,,,silver,val,,,,,0.0,0.0,0.0,0.0,1.0,1.0,3.0,1.0,,,,,,,,,0.0,training_period_start,60.0,186.0270488699898,0.0,3.0,16.0,,,,55,2,right,2021_Nov_22_1225,habits_v_MRI,5,40,1,5,30,15,5,15,30,30,60,RR,60.05556313095718,
23,1,resp2,stim/right_resp_img.png,"[-0.5, 0]",right,stim/silver_coin.png,gold,,,,,training,,,silver,val,,,,,0.0,0.0,0.0,0.0,1.0,1.0,3.0,1.0,,,,,,,,,0.0,training_resp,,186.98793432535604,0.9814905016683042,3.0,,right,silver,0.0,55,2,right,2021_Nov_22_1225,habits_v_MRI,5,40,1,5,30,15,5,15,30,30,60,RR,60.05556313095718,
23,1,resp2,stim/right_resp_img.png,"[-0.5, 0]",right,stim/silver_coin.png,gold,,,,,training,,,silver,val,,,,,0.0,0.0,0.0,0.0,1.0,1.0,3.0,1.0,,,,,,,,,0.0,training_resp,,187.4546898654662,1.4482574788853526,3.0,,right,silver,0.0,55,2,right,2021_Nov_22_1225,habits_v_MRI,5,40,1,5,30,15,5,15,30,30,60,RR,60.05556313095718,
23,1,resp2,stim/right_resp_img.png,"[-0.5, 0]",right,stim/silver_coin.png,gold,,,,,training,,,silver,val,,,,,0.0,0.0,0.0,0.0,1.0,1.0,3.0,1.0,,,,,,,,,0.0,training_resp,,187.87189300404864,1.865389944985509,3.0,,right,silver,0.0,55,2,right,2021_Nov_22_1225,habits_v_MRI,5,40,1,5,30,15,5,15,30,30,60,RR,60.05556313095718,
23,1,resp2,stim/right_resp_img.png,"[-0.5, 0]",right,stim/silver_coin.png,gold,,,,,training,,,silver,val,,,,,0.0,0.0,0.0,0.0,1.0,1.0,3.0,1.0,,,,,,,,,0.0,training_resp,,188.22199169686064,2.215522653888911,3.0,,right,silver,0.0,55,2,right,2021_Nov_22_1225,habits_v_MRI,5,40,1,5,30,15,5,15,30,30,60,RR,60.05556313095718,
23,1,resp2,stim/right_resp_img.png,"[-0.5, 0]",right,stim/silver_coin.png,gold,,,,,training,,,silver,val,,,,,0.0,0.0,0.0,0.0,1.0,1.0,3.0,1.0,,,,,,,,,0.0,training_resp,,188.58946120692417,2.5829874724149704,3.0,,right,silver,0.0,55,2,right,2021_Nov_22_1225,habits_v_MRI,5,40,1,5,30,15,5,15,30,30,60,RR,60.05556313095718,
23,1,resp2,stim/right_resp_img.png,"[-0.5, 0]",right,stim/silver_coin.png,gold,,,,,training,,,silver,val,,,,,0.0,0.0,0.0,0.0,1.0,1.0,3.0,1.0,,,,,,,,,0.0,training_resp,,188.97288221679628,2.9663213873282075,3.0,,right,silver,0.0,55,2,right,2021_Nov_22_1225,habits_v_MRI,5,40,1,5,30,15,5,15,30,30,60,RR,60.05556313095718,
23,1,resp2,stim/right_resp_img.png,"[-0.5, 0]",right,stim/silver_coin.png,gold,,,,,training,,,silver,val,,,,,0.0,0.0,0.0,0.0,1.0,1.0,3.0,1.0,,,,,,,,,0.0,training_resp,,189.3894660165533,3.3829626636579637,3.0,,right,silver,0.0,55,2,right,2021_Nov_22_1225,habits_v_MRI,5,40,1,5,30,15,5,15,30,30,60,RR,60.05556313095718,
23,1,resp2,stim/right_resp_img.png,"[-0.5, 0]",right,stim/silver_coin.png,gold,,,,,training,,,silver,val,,,,,0.0,0.0,0.0,0.0,1.0,1.0,3.0,1.0,,,,,,,,,0.0,training_resp,,189.8060439513065,3.79955672705546,3.0,,right,silver,0.0,55,2,right,2021_Nov_22_1225,habits_v_MRI,5,40,1,5,30,15,5,15,30,30,60,RR,60.05556313095718,
23,1,resp2,stim/right_resp_img.png,"[-0.5, 0]",right,stim/silver_coin.png,gold,,,,,training,,,silver,val,,,,,0.0,0.0,0.0,0.0,1.0,1.0,3.0,1.0,,,,,,,,,0.0,training_resp,,190.18939047586173,4.182890348602086,3.0,,right,silver,0.0,55,2,right,2021_Nov_22_1225,habits_v_MRI,5,40,1,5,30,15,5,15,30,30,60,RR,60.05556313095718,
23,1,resp2,stim/right_resp_img.png,"[-0.5, 0]",right,stim/silver_coin.png,gold,,,,,training,,,silver,val,,,,,0.0,0.0,0.0,0.0,1.0,1.0,3.0,1.0,,,,,,,,,0.0,training_resp,,190.5726484395564,4.566176170948893,3.0,,right,silver,0.0,55,2,right,2021_Nov_22_1225,habits_v_MRI,5,40,1,5,30,15,5,15,30,30,60,RR,60.05556313095718,
23,1,resp2,stim/right_resp_img.png,"[-0.5, 0]",right,stim/silver_coin.png,gold,,,,,training,,,silver,val,,,,,0.0,0.0,0.0,0.0,1.0,1.0,3.0,1.0,,,,,,,,,0.0,training_resp,,190.7726653306745,4.76619218243286,3.0,,left,,,55,2,right,2021_Nov_22_1225,habits_v_MRI,5,40,1,5,30,15,5,15,30,30,60,RR,60.05556313095718,
23,1,resp2,stim/right_resp_img.png,"[-0.5, 0]",right,stim/silver_coin.png,gold,,,,,training,,,silver,val,,,,,0.0,0.0,0.0,0.0,1.0,1.0,3.0,1.0,,,,,,,,,0.0,training_resp,,190.9559703315608,4.949528853874654,3.0,,right,silver,0.0,55,2,right,2021_Nov_22_1225,habits_v_MRI,5,40,1,5,30,15,5,15,30,30,60,RR,60.05556313095718,
23,1,resp2,stim/right_resp_img.png,"[-0.5, 0]",right,stim/silver_coin.png,gold,,,,,training,,,silver,val,,,,,0.0,0.0,0.0,0.0,1.0,1.0,3.0,1.0,,,,,,,,,0.0,training_resp,,191.155931212008,5.149483283050358,3.0,,left,,,55,2,right,2021_Nov_22_1225,habits_v_MRI,5,40,1,5,30,15,5,15,30,30,60,RR,60.05556313095718,
23,1,resp2,stim/right_resp_img.png,"[-0.5, 0]",right,stim/silver_coin.png,gold,,,,,training,,,silver,val,,,,,0.0,0.0,0.0,0.0,1.0,1.0,3.0,1.0,,,,,,,,,0.0,training_resp,,191.3393719866872,5.332869806792587,3.0,,right,silver,0.0,55,2,right,2021_Nov_22_1225,habits_v_MRI,5,40,1,5,30,15,5,15,30,30,60,RR,60.05556313095718,
23,1,resp2,stim/right_resp_img.png,"[-0.5, 0]",right,stim/silver_coin.png,gold,,,,,training,,,silver,val,,,,,0.0,0.0,0.0,0.0,1.0,1.0,3.0,1.0,,,,,,,,,0.0,training_resp,,191.7062699571252,5.699744610581547,3.0,,right,silver,0.0,55,2,right,2021_Nov_22_1225,habits_v_MRI,5,40,1,5,30,15,5,15,30,30,60,RR,60.05556313095718,
23,1,resp2,stim/right_resp_img.png,"[-0.5, 0]",right,stim/silver_coin.png,gold,,,,,training,,,silver,val,,,,,0.0,0.0,0.0,0.0,1.0,1.0,3.0,1.0,,,,,,,,,0.0,training_resp,,192.07324622478336,6.06672469060868,3.0,,right,silver,0.0,55,2,right,2021_Nov_22_1225,habits_v_MRI,5,40,1,5,30,15,5,15,30,30,60,RR,60.05556313095718,
23,1,resp2,stim/right_resp_img.png,"[-0.5, 0]",right,stim/silver_coin.png,gold,,,,,training,,,silver,val,,,,,0.0,0.0,0.0,0.0,1.0,1.0,3.0,1.0,,,,,,,,,0.0,training_resp,,192.23960532341152,6.233135107904673,3.0,,left,,,55,2,right,2021_Nov_22_1225,habits_v_MRI,5,40,1,5,30,15,5,15,30,30,60,RR,60.05556313095718,
23,1,resp2,stim/right_resp_img.png,"[-0.5, 0]",right,stim/silver_coin.png,gold,,,,,training,,,silver,val,,,,,0.0,0.0,0.0,0.0,1.0,1.0,3.0,1.0,,,,,,,,,0.0,training_resp,,192.28974158130583,6.283285734709352,3.0,,left,,,55,2,right,2021_Nov_22_1225,habits_v_MRI,5,40,1,5,30,15,5,15,30,30,60,RR,60.05556313095718,
23,1,resp2,stim/right_resp_img.png,"[-0.5, 0]",right,stim/silver_coin.png,gold,,,,,training,,,silver,val,,,,,0.0,0.0,0.0,0.0,1.0,1.0,3.0,1.0,,,,,,,,,0.0,training_resp,,192.4563936344348,6.4499067035503685,3.0,,right,silver,0.0,55,2,right,2021_Nov_22_1225,habits_v_MRI,5,40,1,5,30,15,5,15,30,30,60,RR,60.05556313095718,
23,1,resp2,stim/right_resp_img.png,"[-0.5, 0]",right,stim/silver_coin.png,gold,,,,,training,,,silver,val,,,,,0.0,0.0,0.0,0.0,1.0,1.0,3.0,1.0,,,,,,,,,0.0,training_resp,,192.82379247201607,6.817046310286969,3.0,17.0,right,silver,1.0,55,2,right,2021_Nov_22_1225,habits_v_MRI,5,40,1,5,30,15,5,15,30,30,60,RR,60.05556313095718,
23,1,resp2,stim/right_resp_img.png,"[-0.5, 0]",right,stim/silver_coin.png,gold,,,,,training,,,silver,val,,,,,0.0,0.0,0.0,0.0,1.0,1.0,3.0,1.0,,,,,,,,,0.0,training_resp,,193.69013341888785,7.683622441254556,3.0,,right,silver,0.0,55,2,right,2021_Nov_22_1225,habits_v_MRI,5,40,1,5,30,15,5,15,30,30,60,RR,60.05556313095718,
23,1,resp2,stim/right_resp_img.png,"[-0.5, 0]",right,stim/silver_coin.png,gold,,,,,training,,,silver,val,,,,,0.0,0.0,0.0,0.0,1.0,1.0,3.0,1.0,,,,,,,,,0.0,training_resp,,194.03996173664927,8.033504717051983,3.0,,right,silver,0.0,55,2,right,2021_Nov_22_1225,habits_v_MRI,5,40,1,5,30,15,5,15,30,30,60,RR,60.05556313095718,
23,1,resp2,stim/right_resp_img.png,"[-0.5, 0]",right,stim/silver_coin.png,gold,,,,,training,,,silver,val,,,,,0.0,0.0,0.0,0.0,1.0,1.0,3.0,1.0,,,,,,,,,0.0,training_resp,,194.407284330111,8.400578636676073,3.0,,right,silver,0.0,55,2,right,2021_Nov_22_1225,habits_v_MRI,5,40,1,5,30,15,5,15,30,30,60,RR,60.05556313095718,
23,1,resp2,stim/right_resp_img.png,"[-0.5, 0]",right,stim/silver_coin.png,gold,,,,,training,,,silver,val,,,,,0.0,0.0,0.0,0.0,1.0,1.0,3.0,1.0,,,,,,,,,0.0,training_resp,,194.74076790409163,8.734072180930525,3.0,,right,silver,0.0,55,2,right,2021_Nov_22_1225,habits_v_MRI,5,40,1,5,30,15,5,15,30,30,60,RR,60.05556313095718,
23,1,resp2,stim/right_resp_img.png,"[-0.5, 0]",right,stim/silver_coin.png,gold,,,,,training,,,silver,val,,,,,0.0,0.0,0.0,0.0,1.0,1.0,3.0,1.0,,,,,,,,,0.0,training_resp,,195.12418686086312,9.117458293680102,3.0,,right,silver,0.0,55,2,right,2021_Nov_22_1225,habits_v_MRI,5,40,1,5,30,15,5,15,30,30,60,RR,60.05556313095718,
23,1,resp2,stim/right_resp_img.png,"[-0.5, 0]",right,stim/silver_coin.png,gold,,,,,training,,,silver,val,,,,,0.0,0.0,0.0,0.0,1.0,1.0,3.0,1.0,,,,,,,,,0.0,training_resp,,195.49119069380689,9.484247762709856,3.0,,right,silver,0.0,55,2,right,2021_Nov_22_1225,habits_v_MRI,5,40,1,5,30,15,5,15,30,30,60,RR,60.05556313095718,
23,1,resp2,stim/right_resp_img.png,"[-0.5, 0]",right,stim/silver_coin.png,gold,,,,,training,,,silver,val,,,,,0.0,0.0,0.0,0.0,1.0,1.0,3.0,1.0,,,,,,,,,0.0,training_resp,,195.89110659016296,9.884409401100127,3.0,,right,silver,0.0,55,2,right,2021_Nov_22_1225,habits_v_MRI,5,40,1,5,30,15,5,15,30,30,60,RR,60.05556313095718,
23,1,resp2,stim/right_resp_img.png,"[-0.5, 0]",right,stim/silver_coin.png,gold,,,,,training,,,silver,val,,,,,0.0,0.0,0.0,0.0,1.0,1.0,3.0,1.0,,,,,,,,,0.0,training_resp,,196.2912650029175,10.284542007371783,3.0,,right,silver,0.0,55,2,right,2021_Nov_22_1225,habits_v_MRI,5,40,1,5,30,15,5,15,30,30,60,RR,60.05556313095718,
23,1,resp2,stim/right_resp_img.png,"[-0.5, 0]",right,stim/silver_coin.png,gold,,,,,training,,,silver,val,,,,,0.0,0.0,0.0,0.0,1.0,1.0,3.0,1.0,,,,,,,,,0.0,training_resp,,196.49128189357,10.48460552468896,3.0,,left,,,55,2,right,2021_Nov_22_1225,habits_v_MRI,5,40,1,5,30,15,5,15,30,30,60,RR,60.05556313095718,
23,1,resp2,stim/right_resp_img.png,"[-0.5, 0]",right,stim/silver_coin.png,gold,,,,,training,,,silver,val,,,,,0.0,0.0,0.0,0.0,1.0,1.0,3.0,1.0,,,,,,,,,0.0,training_resp,,196.7247392805293,10.718023616354913,3.0,,right,silver,0.0,55,2,right,2021_Nov_22_1225,habits_v_MRI,5,40,1,5,30,15,5,15,30,30,60,RR,60.05556313095718,
23,1,resp2,stim/right_resp_img.png,"[-0.5, 0]",right,stim/silver_coin.png,gold,,,,,training,,,silver,val,,,,,0.0,0.0,0.0,0.0,1.0,1.0,3.0,1.0,,,,,,,,,0.0,training_resp,,197.1422371333465,11.135015910491347,3.0,,right,silver,0.0,55,2,right,2021_Nov_22_1225,habits_v_MRI,5,40,1,5,30,15,5,15,30,30,60,RR,60.05556313095718,
23,1,resp2,stim/right_resp_img.png,"[-0.5, 0]",right,stim/silver_coin.png,gold,,,,,training,,,silver,val,,,,,0.0,0.0,0.0,0.0,1.0,1.0,3.0,1.0,,,,,,,,,0.0,training_resp,,197.35847355192527,11.351732961833475,3.0,,left,,,55,2,right,2021_Nov_22_1225,habits_v_MRI,5,40,1,5,30,15,5,15,30,30,60,RR,60.05556313095718,
23,1,resp2,stim/right_resp_img.png,"[-0.5, 0]",right,stim/silver_coin.png,gold,,,,,training,,,silver,val,,,,,0.0,0.0,0.0,0.0,1.0,1.0,3.0,1.0,,,,,,,,,0.0,training_resp,,197.5417545065284,11.535045293625444,3.0,,right,silver,0.0,55,2,right,2021_Nov_22_1225,habits_v_MRI,5,40,1,5,30,15,5,15,30,30,60,RR,60.05556313095718,
23,1,resp2,stim/right_resp_img.png,"[-0.5, 0]",right,stim/silver_coin.png,gold,,,,,training,,,silver,val,,,,,0.0,0.0,0.0,0.0,1.0,1.0,3.0,1.0,,,,,,,,,0.0,training_resp,,197.9252913487144,11.918585068546236,3.0,,right,silver,0.0,55,2,right,2021_Nov_22_1225,habits_v_MRI,5,40,1,5,30,15,5,15,30,30,60,RR,60.05556313095718,
23,1,resp2,stim/right_resp_img.png,"[-0.5, 0]",right,stim/silver_coin.png,gold,,,,,training,,,silver,val,,,,,0.0,0.0,0.0,0.0,1.0,1.0,3.0,1.0,,,,,,,,,0.0,training_resp,,198.2754008914344,12.268680828623474,3.0,,right,silver,0.0,55,2,right,2021_Nov_22_1225,habits_v_MRI,5,40,1,5,30,15,5,15,30,30,60,RR,60.05556313095718,
23,1,resp2,stim/right_resp_img.png,"[-0.5, 0]",right,stim/silver_coin.png,gold,,,,,training,,,silver,val,,,,,0.0,0.0,0.0,0.0,1.0,1.0,3.0,1.0,,,,,,,,,0.0,training_resp,,198.65876882290468,12.652070167474449,3.0,,right,silver,0.0,55,2,right,2021_Nov_22_1225,habits_v_MRI,5,40,1,5,30,15,5,15,30,30,60,RR,60.05556313095718,
23,1,resp2,stim/right_resp_img.png,"[-0.5, 0]",right,stim/silver_coin.png,gold,,,,,training,,,silver,val,,,,,0.0,0.0,0.0,0.0,1.0,1.0,3.0,1.0,,,,,,,,,0.0,training_resp,,198.99248288944364,12.985734968446195,3.0,,right,silver,0.0,55,2,right,2021_Nov_22_1225,habits_v_MRI,5,40,1,5,30,15,5,15,30,30,60,RR,60.05556313095718,
23,1,resp2,stim/right_resp_img.png,"[-0.5, 0]",right,stim/silver_coin.png,gold,,,,,training,,,silver,val,,,,,0.0,0.0,0.0,0.0,1.0,1.0,3.0,1.0,,,,,,,,,0.0,training_resp,,199.32572072185576,13.319000072777271,3.0,,right,silver,0.0,55,2,right,2021_Nov_22_1225,habits_v_MRI,5,40,1,5,30,15,5,15,30,30,60,RR,60.05556313095718,
23,1,resp2,stim/right_resp_img.png,"[-0.5, 0]",right,stim/silver_coin.png,gold,,,,,training,,,silver,val,,,,,0.0,0.0,0.0,0.0,1.0,1.0,3.0,1.0,,,,,,,,,0.0,training_resp,,199.6757730813697,13.669073839206249,3.0,10.0,right,silver,1.0,55,2,right,2021_Nov_22_1225,habits_v_MRI,5,40,1,5,30,15,5,15,30,30,60,RR,60.05556313095718,
23,1,resp2,stim/right_resp_img.png,"[-0.5, 0]",right,stim/silver_coin.png,gold,,,,,training,,,silver,val,,,,,0.0,0.0,0.0,0.0,1.0,1.0,3.0,1.0,,,,,,,,,0.0,training_resp,,200.5261804168113,14.519204642158002,3.0,,right,silver,0.0,55,2,right,2021_Nov_22_1225,habits_v_MRI,5,40,1,5,30,15,5,15,30,30,60,RR,60.05556313095718,
23,1,resp2,stim/right_resp_img.png,"[-0.5, 0]",right,stim/silver_coin.png,gold,,,,,training,,,silver,val,,,,,0.0,0.0,0.0,0.0,1.0,1.0,3.0,1.0,,,,,,,,,0.0,training_resp,,200.8759591761045,14.869261693675073,3.0,,right,silver,0.0,55,2,right,2021_Nov_22_1225,habits_v_MRI,5,40,1,5,30,15,5,15,30,30,60,RR,60.05556313095718,
23,1,resp2,stim/right_resp_img.png,"[-0.5, 0]",right,stim/silver_coin.png,gold,,,,,training,,,silver,val,,,,,0.0,0.0,0.0,0.0,1.0,1.0,3.0,1.0,,,,,,,,,0.0,training_resp,,201.1761934519745,15.169401836581528,3.0,,right,silver,0.0,55,2,right,2021_Nov_22_1225,habits_v_MRI,5,40,1,5,30,15,5,15,30,30,60,RR,60.05556313095718,
23,1,resp2,stim/right_resp_img.png,"[-0.5, 0]",right,stim/silver_coin.png,gold,,,,,training,,,silver,val,,,,,0.0,0.0,0.0,0.0,1.0,1.0,3.0,1.0,,,,,,,,,0.0,training_resp,,201.49275810224933,15.486059446819128,3.0,,right,silver,0.0,55,2,right,2021_Nov_22_1225,habits_v_MRI,5,40,1,5,30,15,5,15,30,30,60,RR,60.05556313095718,
23,1,resp2,stim/right_resp_img.png,"[-0.5, 0]",right,stim/silver_coin.png,gold,,,,,training,,,silver,val,,,,,0.0,0.0,0.0,0.0,1.0,1.0,3.0,1.0,,,,,,,,,0.0,training_resp,,201.8762512509711,15.869542918168008,3.0,,right,silver,0.0,55,2,right,2021_Nov_22_1225,habits_v_MRI,5,40,1,5,30,15,5,15,30,30,60,RR,60.05556313095718,
23,1,resp2,stim/right_resp_img.png,"[-0.5, 0]",right,stim/silver_coin.png,gold,,,,,training,,,silver,val,,,,,0.0,0.0,0.0,0.0,1.0,1.0,3.0,1.0,,,,,,,,,0.0,training_resp,,202.25961918244136,16.252906157635152,3.0,,right,silver,0.0,55,2,right,2021_Nov_22_1225,habits_v_MRI,5,40,1,5,30,15,5,15,30,30,60,RR,60.05556313095718,
23,1,resp2,stim/right_resp_img.png,"[-0.5, 0]",right,stim/silver_coin.png,gold,,,,,training,,,silver,val,,,,,0.0,0.0,0.0,0.0,1.0,1.0,3.0,1.0,,,,,,,,,0.0,training_resp,,202.593556703534,16.586787375621498,3.0,,right,silver,0.0,55,2,right,2021_Nov_22_1225,habits_v_MRI,5,40,1,5,30,15,5,15,30,30,60,RR,60.05556313095718,
23,1,resp2,stim/right_resp_img.png,"[-0.5, 0]",right,stim/silver_coin.png,gold,,,,,training,,,silver,val,,,,,0.0,0.0,0.0,0.0,1.0,1.0,3.0,1.0,,,,,,,,,0.0,training_resp,,202.92681359732524,16.920087082777172,3.0,,right,silver,0.0,55,2,right,2021_Nov_22_1225,habits_v_MRI,5,40,1,5,30,15,5,15,30,30,60,RR,60.05556313095718,
23,1,resp2,stim/right_resp_img.png,"[-0.5, 0]",right,stim/silver_coin.png,gold,,,,,training,,,silver,val,,,,,0.0,0.0,0.0,0.0,1.0,1.0,3.0,1.0,,,,,,,,,0.0,training_resp,,203.2602385217324,17.253522857557982,3.0,,right,silver,0.0,55,2,right,2021_Nov_22_1225,habits_v_MRI,5,40,1,5,30,15,5,15,30,30,60,RR,60.05556313095718,
23,1,resp2,stim/right_resp_img.png,"[-0.5, 0]",right,stim/silver_coin.png,gold,,,,,training,,,silver,val,,,,,0.0,0.0,0.0,0.0,1.0,1.0,3.0,1.0,,,,,,,,,0.0,training_resp,,203.6103222584352,17.603603661991656,3.0,11.0,right,silver,1.0,55,2,right,2021_Nov_22_1225,habits_v_MRI,5,40,1,5,30,15,5,15,30,30,60,RR,60.05556313095718,
23,1,resp2,stim/right_resp_img.png,"[-0.5, 0]",right,stim/silver_coin.png,gold,,,,,training,,,silver,val,,,,,0.0,0.0,0.0,0.0,1.0,1.0,3.0,1.0,,,,,,,,,0.0,training_resp,,204.62728516897187,18.6205475111492,3.0,,right,silver,0.0,55,2,right,2021_Nov_22_1225,habits_v_MRI,5,40,1,5,30,15,5,15,30,30,60,RR,60.05556313095718,
23,1,resp2,stim/right_resp_img.png,"[-0.5, 0]",right,stim/silver_coin.png,gold,,,,,training,,,silver,val,,,,,0.0,0.0,0.0,0.0,1.0,1.0,3.0,1.0,,,,,,,,,0.0,training_resp,,204.92737927194685,18.92066419450566,3.0,,right,silver,0.0,55,2,right,2021_Nov_22_1225,habits_v_MRI,5,40,1,5,30,15,5,15,30,30,60,RR,60.05556313095718,
23,1,resp2,stim/right_resp_img.png,"[-0.5, 0]",right,stim/silver_coin.png,gold,,,,,training,,,silver,val,,,,,0.0,0.0,0.0,0.0,1.0,1.0,3.0,1.0,,,,,,,,,0.0,training_resp,,205.26090976549312,19.254193807952102,3.0,,right,silver,0.0,55,2,right,2021_Nov_22_1225,habits_v_MRI,5,40,1,5,30,15,5,15,30,30,60,RR,60.05556313095718,
23,1,resp2,stim/right_resp_img.png,"[-0.5, 0]",right,stim/silver_coin.png,gold,,,,,training,,,silver,val,,,,,0.0,0.0,0.0,0.0,1.0,1.0,3.0,1.0,,,,,,,,,0.0,training_resp,,205.6111518559046,19.60421625617892,3.0,,right,silver,0.0,55,2,right,2021_Nov_22_1225,habits_v_MRI,5,40,1,5,30,15,5,15,30,30,60,RR,60.05556313095718,
23,1,resp2,stim/right_resp_img.png,"[-0.5, 0]",right,stim/silver_coin.png,gold,,,,,training,,,silver,val,,,,,0.0,0.0,0.0,0.0,1.0,1.0,3.0,1.0,,,,,,,,,0.0,training_resp,,205.9610754796304,19.954277412965894,3.0,,right,silver,0.0,55,2,right,2021_Nov_22_1225,habits_v_MRI,5,40,1,5,30,15,5,15,30,30,60,RR,60.05556313095718,
23,1,resp2,stim/right_resp_img.png,"[-0.5, 0]",right,stim/silver_coin.png,gold,,,,,training,,,silver,val,,,,,0.0,0.0,0.0,0.0,1.0,1.0,3.0,1.0,,,,,,,,,0.0,training_resp,,206.3109372281469,20.30420074332505,3.0,,right,silver,0.0,55,2,right,2021_Nov_22_1225,habits_v_MRI,5,40,1,5,30,15,5,15,30,30,60,RR,60.05556313095718,
23,1,resp2,stim/right_resp_img.png,"[-0.5, 0]",right,stim/silver_coin.png,gold,,,,,training,,,silver,val,,,,,0.0,0.0,0.0,0.0,1.0,1.0,3.0,1.0,,,,,,,,,0.0,training_resp,,206.6610136339441,20.654315271414816,3.0,,right,silver,0.0,55,2,right,2021_Nov_22_1225,habits_v_MRI,5,40,1,5,30,15,5,15,30,30,60,RR,60.05556313095718,
23,1,resp2,stim/right_resp_img.png,"[-0.5, 0]",right,stim/silver_coin.png,gold,,,,,training,,,silver,val,,,,,0.0,0.0,0.0,0.0,1.0,1.0,3.0,1.0,,,,,,,,,0.0,training_resp,,206.9946705168113,20.9878964968957,3.0,,right,silver,0.0,55,2,right,2021_Nov_22_1225,habits_v_MRI,5,40,1,5,30,15,5,15,30,30,60,RR,60.05556313095718,
23,1,resp2,stim/right_resp_img.png,"[-0.5, 0]",right,stim/silver_coin.png,gold,,,,,training,,,silver,val,,,,,0.0,0.0,0.0,0.0,1.0,1.0,3.0,1.0,,,,,,,,,0.0,training_resp,,207.31133575178683,21.30462038097903,3.0,,right,silver,0.0,55,2,right,2021_Nov_22_1225,habits_v_MRI,5,40,1,5,30,15,5,15,30,30,60,RR,60.05556313095718,
23,1,resp2,stim/right_resp_img.png,"[-0.5, 0]",right,stim/silver_coin.png,gold,,,,,training,,,silver,val,,,,,0.0,0.0,0.0,0.0,1.0,1.0,3.0,1.0,,,,,,,,,0.0,training_resp,,207.66132828826085,21.65463021909818,3.0,,right,silver,0.0,55,2,right,2021_Nov_22_1225,habits_v_MRI,5,40,1,5,30,15,5,15,30,30,60,RR,60.05556313095718,
23,1,resp2,stim/right_resp_img.png,"[-0.5, 0]",right,stim/silver_coin.png,gold,,,,,training,,,silver,val,,,,,0.0,0.0,0.0,0.0,1.0,1.0,3.0,1.0,,,,,,,,,0.0,training_resp,,207.97826565708965,21.971524773631245,3.0,13.0,right,silver,1.0,55,2,right,2021_Nov_22_1225,habits_v_MRI,5,40,1,5,30,15,5,15,30,30,60,RR,60.05556313095718,
23,1,resp2,stim/right_resp_img.png,"[-0.5, 0]",right,stim/silver_coin.png,gold,,,,,training,,,silver,val,,,,,0.0,0.0,0.0,0.0,1.0,1.0,3.0,1.0,,,,,,,,,0.0,training_resp,,208.8786230380647,22.8718935912475,3.0,,right,silver,0.0,55,2,right,2021_Nov_22_1225,habits_v_MRI,5,40,1,5,30,15,5,15,30,30,60,RR,60.05556313095718,
23,1,resp2,stim/right_resp_img.png,"[-0.5, 0]",right,stim/silver_coin.png,gold,,,,,training,,,silver,val,,,,,0.0,0.0,0.0,0.0,1.0,1.0,3.0,1.0,,,,,,,,,0.0,training_resp,,209.2453145622276,23.23860710905865,3.0,,right,silver,0.0,55,2,right,2021_Nov_22_1225,habits_v_MRI,5,40,1,5,30,15,5,15,30,30,60,RR,60.05556313095718,
23,1,resp2,stim/right_resp_img.png,"[-0.5, 0]",right,stim/silver_coin.png,gold,,,,,training,,,silver,val,,,,,0.0,0.0,0.0,0.0,1.0,1.0,3.0,1.0,,,,,,,,,0.0,training_resp,,209.56216219672933,23.55544741265476,3.0,,right,silver,0.0,55,2,right,2021_Nov_22_1225,habits_v_MRI,5,40,1,5,30,15,5,15,30,30,60,RR,60.05556313095718,
23,1,resp2,stim/right_resp_img.png,"[-0.5, 0]",right,stim/silver_coin.png,gold,,,,,training,,,silver,val,,,,,0.0,0.0,0.0,0.0,1.0,1.0,3.0,1.0,,,,,,,,,0.0,training_resp,,209.86222785478455,23.85552333435044,3.0,,right,silver,0.0,55,2,right,2021_Nov_22_1225,habits_v_MRI,5,40,1,5,30,15,5,15,30,30,60,RR,60.05556313095718,
23,1,resp2,stim/right_resp_img.png,"[-0.5, 0]",right,stim/silver_coin.png,gold,,,,,training,,,silver,val,,,,,0.0,0.0,0.0,0.0,1.0,1.0,3.0,1.0,,,,,,,,,0.0,training_resp,,210.1453880793415,24.13868649117649,3.0,,right,silver,0.0,55,2,right,2021_Nov_22_1225,habits_v_MRI,5,40,1,5,30,15,5,15,30,30,60,RR,60.05556313095718,
23,1,resp2,stim/right_resp_img.png,"[-0.5, 0]",right,stim/silver_coin.png,gold,,,,,training,,,silver,val,,,,,0.0,0.0,0.0,0.0,1.0,1.0,3.0,1.0,,,,,,,,,0.0,training_resp,,210.44547367841005,24.438770623877645,3.0,,right,silver,0.0,55,2,right,2021_Nov_22_1225,habits_v_MRI,5,40,1,5,30,15,5,15,30,30,60,RR,60.05556313095718,
23,1,resp2,stim/right_resp_img.png,"[-0.5, 0]",right,stim/silver_coin.png,gold,,,,,training,,,silver,val,,,,,0.0,0.0,0.0,0.0,1.0,1.0,3.0,1.0,,,,,,,,,0.0,training_resp,,210.74560854304585,24.738837748300284,3.0,,right,silver,0.0,55,2,right,2021_Nov_22_1225,habits_v_MRI,5,40,1,5,30,15,5,15,30,30,60,RR,60.05556313095718,
23,1,resp2,stim/right_resp_img.png,"[-0.5, 0]",right,stim/silver_coin.png,gold,,,,,training,,,silver,val,,,,,0.0,0.0,0.0,0.0,1.0,1.0,3.0,1.0,,,,,,,,,0.0,training_resp,,211.04569502174851,25.039002230856568,3.0,,right,silver,0.0,55,2,right,2021_Nov_22_1225,habits_v_MRI,5,40,1,5,30,15,5,15,30,30,60,RR,60.05556313095718,
23,1,resp2,stim/right_resp_img.png,"[-0.5, 0]",right,stim/silver_coin.png,gold,,,,,training,,,silver,val,,,,,0.0,0.0,0.0,0.0,1.0,1.0,3.0,1.0,,,,,,,,,0.0,training_resp,,211.345786778722,25.3390690619126,3.0,,right,silver,0.0,55,2,right,2021_Nov_22_1225,habits_v_MRI,5,40,1,5,30,15,5,15,30,30,60,RR,60.05556313095718,
23,1,resp2,stim/right_resp_img.png,"[-0.5, 0]",right,stim/silver_coin.png,gold,,,,,training,,,silver,val,,,,,0.0,0.0,0.0,0.0,1.0,1.0,3.0,1.0,,,,,,,,,0.0,training_resp,,211.66252004681155,25.655809368006885,3.0,,right,silver,0.0,55,2,right,2021_Nov_22_1225,habits_v_MRI,5,40,1,5,30,15,5,15,30,30,60,RR,60.05556313095718,
23,1,resp2,stim/right_resp_img.png,"[-0.5, 0]",right,stim/silver_coin.png,gold,,,,,training,,,silver,val,,,,,0.0,0.0,0.0,0.0,1.0,1.0,3.0,1.0,,,,,,,,,0.0,training_resp,,211.9626141502522,25.95591432135552,3.0,,right,silver,0.0,55,2,right,2021_Nov_22_1225,habits_v_MRI,5,40,1,5,30,15,5,15,30,30,60,RR,60.05556313095718,
23,1,resp2,stim/right_resp_img.png,"[-0.5, 0]",right,stim/silver_coin.png,gold,,,,,training,,,silver,val,,,,,0.0,0.0,0.0,0.0,1.0,1.0,3.0,1.0,,,,,,,,,0.0,training_resp,,212.246068501845,26.2393545974046,3.0,,right,silver,0.0,55,2,right,2021_Nov_22_1225,habits_v_MRI,5,40,1,5,30,15,5,15,30,30,60,RR,60.05556313095718,
23,1,resp2,stim/right_resp_img.png,"[-0.5, 0]",right,stim/silver_coin.png,gold,,,,,training,,,silver,val,,,,,0.0,0.0,0.0,0.0,1.0,1.0,3.0,1.0,,,,,,,,,0.0,training_resp,,212.54612037725747,26.539428173098717,3.0,21.0,right,silver,1.0,55,2,right,2021_Nov_22_1225,habits_v_MRI,5,40,1,5,30,15,5,15,30,30,60,RR,60.05556313095718,
23,1,resp2,stim/right_resp_img.png,"[-0.5, 0]",right,stim/silver_coin.png,gold,,,,,training,,,silver,val,,,,,0.0,0.0,0.0,0.0,1.0,1.0,3.0,1.0,,,,,,,,,0.0,training_resp,,213.34662664029747,27.339883997105066,3.0,,right,silver,0.0,55,2,right,2021_Nov_22_1225,habits_v_MRI,5,40,1,5,30,15,5,15,30,30,60,RR,60.05556313095718,
23,1,resp2,stim/right_resp_img.png,"[-0.5, 0]",right,stim/silver_coin.png,gold,,,,,training,,,silver,val,,,,,0.0,0.0,0.0,0.0,1.0,1.0,3.0,1.0,,,,,,,,,0.0,training_resp,,213.7296420880593,27.7230513477698,3.0,,right,silver,0.0,55,2,right,2021_Nov_22_1225,habits_v_MRI,5,40,1,5,30,15,5,15,30,30,60,RR,60.05556313095718,
23,1,resp2,stim/right_resp_img.png,"[-0.5, 0]",right,stim/silver_coin.png,gold,,,,,training,,,silver,val,,,,,0.0,0.0,0.0,0.0,1.0,1.0,3.0,1.0,,,,,,,,,0.0,training_resp,,214.04645863873884,28.039886958897117,3.0,,right,silver,0.0,55,2,right,2021_Nov_22_1225,habits_v_MRI,5,40,1,5,30,15,5,15,30,30,60,RR,60.05556313095718,
23,1,resp2,stim/right_resp_img.png,"[-0.5, 0]",right,stim/silver_coin.png,gold,,,,,training,,,silver,val,,,,,0.0,0.0,0.0,0.0,1.0,1.0,3.0,1.0,,,,,,,,,0.0,training_resp,,214.36323853302747,28.356638115365055,3.0,,right,silver,0.0,55,2,right,2021_Nov_22_1225,habits_v_MRI,5,40,1,5,30,15,5,15,30,30,60,RR,60.05556313095718,
23,1,resp2,stim/right_resp_img.png,"[-0.5, 0]",right,stim/silver_coin.png,gold,,,,,training,,,silver,val,,,,,0.0,0.0,0.0,0.0,1.0,1.0,3.0,1.0,,,,,,,,,0.0,training_resp,,214.7132665528916,28.706667014863346,3.0,,right,silver,0.0,55,2,right,2021_Nov_22_1225,habits_v_MRI,5,40,1,5,30,15,5,15,30,30,60,RR,60.05556313095718,
23,1,resp2,stim/right_resp_img.png,"[-0.5, 0]",right,stim/silver_coin.png,gold,,,,,training,,,silver,val,,,,,0.0,0.0,0.0,0.0,1.0,1.0,3.0,1.0,,,,,,,,,0.0,training_resp,,215.03018310060725,29.02360291685909,3.0,,right,silver,0.0,55,2,right,2021_Nov_22_1225,habits_v_MRI,5,40,1,5,30,15,5,15,30,30,60,RR,60.05556313095718,
23,1,resp2,stim/right_resp_img.png,"[-0.5, 0]",right,stim/silver_coin.png,gold,,,,,training,,,silver,val,,,,,0.0,0.0,0.0,0.0,1.0,1.0,3.0,1.0,,,,,,,,,0.0,training_resp,,215.3634675592184,29.356880044564605,3.0,,right,silver,0.0,55,2,right,2021_Nov_22_1225,habits_v_MRI,5,40,1,5,30,15,5,15,30,30,60,RR,60.05556313095718,
23,1,resp2,stim/right_resp_img.png,"[-0.5, 0]",right,stim/silver_coin.png,gold,,,,,training,,,silver,val,,,,,0.0,0.0,0.0,0.0,1.0,1.0,3.0,1.0,,,,,,,,,0.0,training_resp,,215.6969605172053,29.69040144747123,3.0,,right,silver,0.0,55,2,right,2021_Nov_22_1225,habits_v_MRI,5,40,1,5,30,15,5,15,30,30,60,RR,60.05556313095718,
23,1,resp2,stim/right_resp_img.png,"[-0.5, 0]",right,stim/silver_coin.png,gold,,,,,training,,,silver,val,,,,,0.0,0.0,0.0,0.0,1.0,1.0,3.0,1.0,,,,,,,,,0.0,training_resp,,216.0309701776132,30.024065075442195,3.0,,right,silver,0.0,55,2,right,2021_Nov_22_1225,habits_v_MRI,5,40,1,5,30,15,5,15,30,30,60,RR,60.05556313095718,
23,1,resp2,stim/right_resp_img.png,"[-0.5, 0]",right,stim/silver_coin.png,gold,,,,,training,,,silver,val,,,,,0.0,0.0,0.0,0.0,1.0,1.0,3.0,1.0,,,,,,,,,0.0,training_resp,,216.34742896584797,30.340661983471364,3.0,,right,silver,0.0,55,2,right,2021_Nov_22_1225,habits_v_MRI,5,40,1,5,30,15,5,15,30,30,60,RR,60.05556313095718,
23,1,resp2,stim/right_resp_img.png,"[-0.5, 0]",right,stim/silver_coin.png,gold,,,,,training,,,silver,val,,,,,0.0,0.0,0.0,0.0,1.0,1.0,3.0,1.0,,,,,,,,,0.0,training_resp,,216.66410065162927,30.657321352977306,3.0,,right,silver,0.0,55,2,right,2021_Nov_22_1225,habits_v_MRI,5,40,1,5,30,15,5,15,30,30,60,RR,60.05556313095718,
23,1,resp2,stim/right_resp_img.png,"[-0.5, 0]",right,stim/silver_coin.png,gold,,,,,training,,,silver,val,,,,,0.0,0.0,0.0,0.0,1.0,1.0,3.0,1.0,,,,,,,,,0.0,training_resp,,216.9808949152939,30.974149046931416,3.0,,right,silver,0.0,55,2,right,2021_Nov_22_1225,habits_v_MRI,5,40,1,5,30,15,5,15,30,30,60,RR,60.05556313095718,
23,1,resp2,stim/right_resp_img.png,"[-0.5, 0]",right,stim/silver_coin.png,gold,,,,,training,,,silver,val,,,,,0.0,0.0,0.0,0.0,1.0,1.0,3.0,1.0,,,,,,,,,0.0,training_resp,,217.3476568190381,31.340893355663862,3.0,,right,silver,0.0,55,2,right,2021_Nov_22_1225,habits_v_MRI,5,40,1,5,30,15,5,15,30,30,60,RR,60.05556313095718,
23,1,resp2,stim/right_resp_img.png,"[-0.5, 0]",right,stim/silver_coin.png,gold,,,,,training,,,silver,val,,,,,0.0,0.0,0.0,0.0,1.0,1.0,3.0,1.0,,,,,,,,,0.0,training_resp,,217.6644408190623,31.657704334240407,3.0,,right,silver,0.0,55,2,right,2021_Nov_22_1225,habits_v_MRI,5,40,1,5,30,15,5,15,30,30,60,RR,60.05556313095718,
23,1,resp2,stim/right_resp_img.png,"[-0.5, 0]",right,stim/silver_coin.png,gold,,,,,training,,,silver,val,,,,,0.0,0.0,0.0,0.0,1.0,1.0,3.0,1.0,,,,,,,,,0.0,training_resp,,218.01452983450145,32.00776373175904,3.0,,right,silver,0.0,55,2,right,2021_Nov_22_1225,habits_v_MRI,5,40,1,5,30,15,5,15,30,30,60,RR,60.05556313095718,
23,1,resp2,stim/right_resp_img.png,"[-0.5, 0]",right,stim/silver_coin.png,gold,,,,,training,,,silver,val,,,,,0.0,0.0,0.0,0.0,1.0,1.0,3.0,1.0,,,,,,,,,0.0,training_resp,,218.34799376083535,32.341188069432974,3.0,,right,silver,0.0,55,2,right,2021_Nov_22_1225,habits_v_MRI,5,40,1,5,30,15,5,15,30,30,60,RR,60.05556313095718,
23,1,resp2,stim/right_resp_img.png,"[-0.5, 0]",right,stim/silver_coin.png,gold,,,,,training,,,silver,val,,,,,0.0,0.0,0.0,0.0,1.0,1.0,3.0,1.0,,,,,,,,,0.0,training_resp,,218.631585938856,32.62479344382882,3.0,,right,silver,0.0,55,2,right,2021_Nov_22_1225,habits_v_MRI,5,40,1,5,30,15,5,15,30,30,60,RR,60.05556313095718,
23,1,resp2,stim/right_resp_img.png,"[-0.5, 0]",right,stim/silver_coin.png,gold,,,,,training,,,silver,val,,,,,0.0,0.0,0.0,0.0,1.0,1.0,3.0,1.0,,,,,,,,,0.0,training_resp,,218.96515631396323,32.95821631560102,3.0,,right,silver,0.0,55,2,right,2021_Nov_22_1225,habits_v_MRI,5,40,1,5,30,15,5,15,30,30,60,RR,60.05556313095718,
23,1,resp2,stim/right_resp_img.png,"[-0.5, 0]",right,stim/silver_coin.png,gold,,,,,training,,,silver,val,,,,,0.0,0.0,0.0,0.0,1.0,1.0,3.0,1.0,,,,,,,,,0.0,training_resp,,219.2818321054801,33.27506424346939,3.0,,right,silver,0.0,55,2,right,2021_Nov_22_1225,habits_v_MRI,5,40,1,5,30,15,5,15,30,30,60,RR,60.05556313095718,
23,1,resp2,stim/right_resp_img.png,"[-0.5, 0]",right,stim/silver_coin.png,gold,,,,,training,,,silver,val,,,,,0.0,0.0,0.0,0.0,1.0,1.0,3.0,1.0,,,,,,,,,0.0,training_resp,,219.61521421559155,33.608451045583934,3.0,,right,silver,0.0,55,2,right,2021_Nov_22_1225,habits_v_MRI,5,40,1,5,30,15,5,15,30,30,60,RR,60.05556313095718,
23,1,resp2,stim/right_resp_img.png,"[-0.5, 0]",right,stim/silver_coin.png,gold,,,,,training,,,silver,val,,,,,0.0,0.0,0.0,0.0,1.0,1.0,3.0,1.0,,,,,,,,,0.0,training_resp,,219.9654099731706,33.958635073155165,3.0,18.0,right,silver,1.0,55,2,right,2021_Nov_22_1225,habits_v_MRI,5,40,1,5,30,15,5,15,30,30,60,RR,60.05556313095718,
23,1,resp2,stim/right_resp_img.png,"[-0.5, 0]",right,stim/silver_coin.png,gold,,,,,training,,,silver,val,,,,,0.0,0.0,0.0,0.0,1.0,1.0,3.0,1.0,,,,,,,,,0.0,training_resp,,220.96573547786105,34.95893799792975,3.0,,right,silver,0.0,55,2,right,2021_Nov_22_1225,habits_v_MRI,5,40,1,5,30,15,5,15,30,30,60,RR,60.05556313095718,
23,1,resp2,stim/right_resp_img.png,"[-0.5, 0]",right,stim/silver_coin.png,gold,,,,,training,,,silver,val,,,,,0.0,0.0,0.0,0.0,1.0,1.0,3.0,1.0,,,,,,,,,0.0,training_resp,,221.26569028850645,35.258932396769524,3.0,,right,silver,0.0,55,2,right,2021_Nov_22_1225,habits_v_MRI,5,40,1,5,30,15,5,15,30,30,60,RR,60.05556313095718,
23,1,resp2,stim/right_resp_img.png,"[-0.5, 0]",right,stim/silver_coin.png,gold,,,,,training,,,silver,val,,,,,0.0,0.0,0.0,0.0,1.0,1.0,3.0,1.0,,,,,,,,,0.0,training_resp,,221.54910358553752,35.54231167724356,3.0,,right,silver,0.0,55,2,right,2021_Nov_22_1225,habits_v_MRI,5,40,1,5,30,15,5,15,30,30,60,RR,60.05556313095718,
23,1,resp2,stim/right_resp_img.png,"[-0.5, 0]",right,stim/silver_coin.png,gold,,,,,training,,,silver,val,,,,,0.0,0.0,0.0,0.0,1.0,1.0,3.0,1.0,,,,,,,,,0.0,training_resp,,221.8658779086545,35.85911033954471,3.0,,right,silver,0.0,55,2,right,2021_Nov_22_1225,habits_v_MRI,5,40,1,5,30,15,5,15,30,30,60,RR,60.05556313095718,
23,1,resp2,stim/right_resp_img.png,"[-0.5, 0]",right,stim/silver_coin.png,gold,,,,,training,,,silver,val,,,,,0.0,0.0,0.0,0.0,1.0,1.0,3.0,1.0,,,,,,,,,0.0,training_resp,,222.14913519797847,36.142335664946586,3.0,,right,silver,0.0,55,2,right,2021_Nov_22_1225,habits_v_MRI,5,40,1,5,30,15,5,15,30,30,60,RR,60.05556313095718,
23,1,resp2,stim/right_resp_img.png,"[-0.5, 0]",right,stim/silver_coin.png,gold,,,,,training,,,silver,val,,,,,0.0,0.0,0.0,0.0,1.0,1.0,3.0,1.0,,,,,,,,,0.0,training_resp,,222.46608722861856,36.45912670297548,3.0,,right,silver,0.0,55,2,right,2021_Nov_22_1225,habits_v_MRI,5,40,1,5,30,15,5,15,30,30,60,RR,60.05556313095718,
23,1,resp2,stim/right_resp_img.png,"[-0.5, 0]",right,stim/silver_coin.png,gold,,,,,training,,,silver,val,,,,,0.0,0.0,0.0,0.0,1.0,1.0,3.0,1.0,,,,,,,,,0.0,training_resp,,222.7493612333201,36.74258193420246,3.0,,right,silver,0.0,55,2,right,2021_Nov_22_1225,habits_v_MRI,5,40,1,5,30,15,5,15,30,30,60,RR,60.05556313095718,
23,1,resp2,stim/right_resp_img.png,"[-0.5, 0]",right,stim/silver_coin.png,gold,,,,,training,,,silver,val,,,,,0.0,0.0,0.0,0.0,1.0,1.0,3.0,1.0,,,,,,,,,0.0,training_resp,,223.04935563215983,37.0426038983278,3.0,,right,silver,0.0,55,2,right,2021_Nov_22_1225,habits_v_MRI,5,40,1,5,30,15,5,15,30,30,60,RR,60.05556313095718,
23,1,resp2,stim/right_resp_img.png,"[-0.5, 0]",right,stim/silver_coin.png,gold,,,,,training,,,silver,val,,,,,0.0,0.0,0.0,0.0,1.0,1.0,3.0,1.0,,,,,,,,,0.0,training_resp,,223.36615664046255,37.35938525944948,3.0,,right,silver,0.0,55,2,right,2021_Nov_22_1225,habits_v_MRI,5,40,1,5,30,15,5,15,30,30,60,RR,60.05556313095718,
23,1,resp2,stim/right_resp_img.png,"[-0.5, 0]",right,stim/silver_coin.png,gold,,,,,training,,,silver,val,,,,,0.0,0.0,0.0,0.0,1.0,1.0,3.0,1.0,,,,,,,,,0.0,training_resp,,223.71627263445407,37.70950183970854,3.0,,right,silver,0.0,55,2,right,2021_Nov_22_1225,habits_v_MRI,5,40,1,5,30,15,5,15,30,30,60,RR,60.05556313095718,
23,1,resp2,stim/right_resp_img.png,"[-0.5, 0]",right,stim/silver_coin.png,gold,,,,,training,,,silver,val,,,,,0.0,0.0,0.0,0.0,1.0,1.0,3.0,1.0,,,,,,,,,0.0,training_resp,,224.0497254175134,38.04295315640047,3.0,,right,silver,0.0,55,2,right,2021_Nov_22_1225,habits_v_MRI,5,40,1,5,30,15,5,15,30,30,60,RR,60.05556313095718,
