list,trial_num_python,condition,stimulus,position,corrResp,coin_img,devalued_coin,stimulus_choice1,stimulus_choice2,position1,position2,phase,corrResp1,corrResp2,outcome,cond_val,outcome_choice1,outcome_choice2,cond_val1,cond_val2,blockLoop.thisRepN,blockLoop.thisTrialN,blockLoop.thisN,blockLoop.thisIndex,trialLoop.thisRepN,trialLoop.thisTrialN,trialLoop.thisN,trialLoop.thisIndex,choice_trialLoop.thisRepN,choice_trialLoop.thisTrialN,choice_trialLoop.thisN,choice_trialLoop.thisIndex,contingency_trialLoop.thisRepN,contingency_trialLoop.thisTrialN,contingency_trialLoop.thisN,contingency_trialLoop.thisIndex,run,event,duration,globalClock_t,routineClock_t,trial,nResp_untilRnf,resp,selected_coin,wasRnf,participant,task_ordering,hand,date,expName,n_repeat_training,credits_per_rnf,cost_response,min_resp_bet_rnf,max_resp_bet_rnf,mean_resp_bet_rnf,sigma_resp_bet_rnf,min_ITI,max_ITI,min_trial_duration,max_trial_duration,schedule,frameRate,Unnamed: 65
19.0,0.0,resp1,stim/right_resp_img.png,"[-0.5, 0]",right,stim/silver_coin.png,gold,,,,,training,,,silver,val,,,,,0.0,0.0,0.0,0.0,0.0,0.0,0.0,0.0,,,,,,,,,0.0,instr_before_block,6.0,0.0045550158247351,,,,,,,51.0,2.0,right,2021_Nov_16_1616,habits_v_MRI,5.0,40.0,1.0,5.0,30.0,15.0,5.0,15.0,30.0,30.0,60.0,RR,59.99006051408996,
19.0,0.0,resp1,stim/right_resp_img.png,"[-0.5, 0]",right,stim/silver_coin.png,gold,,,,,training,,,silver,val,,,,,0.0,0.0,0.0,0.0,0.0,0.0,0.0,0.0,,,,,,,,,0.0,training_period_start,45.0,6.0490477222483605,0.0,0.0,5.0,,,,51.0,2.0,right,2021_Nov_16_1616,habits_v_MRI,5.0,40.0,1.0,5.0,30.0,15.0,5.0,15.0,30.0,30.0,60.0,RR,59.99006051408996,
19.0,0.0,resp1,stim/right_resp_img.png,"[-0.5, 0]",right,stim/silver_coin.png,gold,,,,,training,,,silver,val,,,,,0.0,0.0,0.0,0.0,0.0,0.0,0.0,0.0,,,,,,,,,0.0,training_resp,,7.328071688534692,1.2993835641536862,0.0,,right,silver,0.0,51.0,2.0,right,2021_Nov_16_1616,habits_v_MRI,5.0,40.0,1.0,5.0,30.0,15.0,5.0,15.0,30.0,30.0,60.0,RR,59.99006051408996,
19.0,0.0,resp1,stim/right_resp_img.png,"[-0.5, 0]",right,stim/silver_coin.png,gold,,,,,training,,,silver,val,,,,,0.0,0.0,0.0,0.0,0.0,0.0,0.0,0.0,,,,,,,,,0.0,training_resp,,8.678287973394617,2.6497728649992496,0.0,,right,silver,0.0,51.0,2.0,right,2021_Nov_16_1616,habits_v_MRI,5.0,40.0,1.0,5.0,30.0,15.0,5.0,15.0,30.0,30.0,60.0,RR,59.99006051408996,
19.0,0.0,resp1,stim/right_resp_img.png,"[-0.5, 0]",right,stim/silver_coin.png,gold,,,,,training,,,silver,val,,,,,0.0,0.0,0.0,0.0,0.0,0.0,0.0,0.0,,,,,,,,,0.0,training_resp,,9.378419670974836,3.349941218504682,0.0,,right,silver,0.0,51.0,2.0,right,2021_Nov_16_1616,habits_v_MRI,5.0,40.0,1.0,5.0,30.0,15.0,5.0,15.0,30.0,30.0,60.0,RR,59.99006051408996,
19.0,0.0,resp1,stim/right_resp_img.png,"[-0.5, 0]",right,stim/silver_coin.png,gold,,,,,training,,,silver,val,,,,,0.0,0.0,0.0,0.0,0.0,0.0,0.0,0.0,,,,,,,,,0.0,training_resp,,10.112302999943497,4.083605198422447,0.0,,right,silver,0.0,51.0,2.0,right,2021_Nov_16_1616,habits_v_MRI,5.0,40.0,1.0,5.0,30.0,15.0,5.0,15.0,30.0,30.0,60.0,RR,59.99006051408996,
19.0,0.0,resp1,stim/right_resp_img.png,"[-0.5, 0]",right,stim/silver_coin.png,gold,,,,,training,,,silver,val,,,,,0.0,0.0,0.0,0.0,0.0,0.0,0.0,0.0,,,,,,,,,0.0,training_resp,,10.778875436400996,4.750413405941799,0.0,11.0,right,silver,1.0,51.0,2.0,right,2021_Nov_16_1616,habits_v_MRI,5.0,40.0,1.0,5.0,30.0,15.0,5.0,15.0,30.0,30.0,60.0,RR,59.99006051408996,
19.0,0.0,resp1,stim/right_resp_img.png,"[-0.5, 0]",right,stim/silver_coin.png,gold,,,,,training,,,silver,val,,,,,0.0,0.0,0.0,0.0,0.0,0.0,0.0,0.0,,,,,,,,,0.0,training_resp,,11.879072880139574,5.850743983872235,0.0,,right,silver,0.0,51.0,2.0,right,2021_Nov_16_1616,habits_v_MRI,5.0,40.0,1.0,5.0,30.0,15.0,5.0,15.0,30.0,30.0,60.0,RR,59.99006051408996,
19.0,0.0,resp1,stim/right_resp_img.png,"[-0.5, 0]",right,stim/silver_coin.png,gold,,,,,training,,,silver,val,,,,,0.0,0.0,0.0,0.0,0.0,0.0,0.0,0.0,,,,,,,,,0.0,training_resp,,12.54656054242514,6.5179627381730825,0.0,,right,silver,0.0,51.0,2.0,right,2021_Nov_16_1616,habits_v_MRI,5.0,40.0,1.0,5.0,30.0,15.0,5.0,15.0,30.0,30.0,60.0,RR,59.99006051408996,
19.0,0.0,resp1,stim/right_resp_img.png,"[-0.5, 0]",right,stim/silver_coin.png,gold,,,,,training,,,silver,val,,,,,0.0,0.0,0.0,0.0,0.0,0.0,0.0,0.0,,,,,,,,,0.0,training_resp,,12.929424967849627,6.900980238802731,0.0,,right,silver,0.0,51.0,2.0,right,2021_Nov_16_1616,habits_v_MRI,5.0,40.0,1.0,5.0,30.0,15.0,5.0,15.0,30.0,30.0,60.0,RR,59.99006051408996,
19.0,0.0,resp1,stim/right_resp_img.png,"[-0.5, 0]",right,stim/silver_coin.png,gold,,,,,training,,,silver,val,,,,,0.0,0.0,0.0,0.0,0.0,0.0,0.0,0.0,,,,,,,,,0.0,training_resp,,13.596380092436448,7.567906625336036,0.0,,right,silver,0.0,51.0,2.0,right,2021_Nov_16_1616,habits_v_MRI,5.0,40.0,1.0,5.0,30.0,15.0,5.0,15.0,30.0,30.0,60.0,RR,59.99006051408996,
19.0,0.0,resp1,stim/right_resp_img.png,"[-0.5, 0]",right,stim/silver_coin.png,gold,,,,,training,,,silver,val,,,,,0.0,0.0,0.0,0.0,0.0,0.0,0.0,0.0,,,,,,,,,0.0,training_resp,,14.096525103319436,8.068065125495195,0.0,,right,silver,0.0,51.0,2.0,right,2021_Nov_16_1616,habits_v_MRI,5.0,40.0,1.0,5.0,30.0,15.0,5.0,15.0,30.0,30.0,60.0,RR,59.99006051408996,
19.0,0.0,resp1,stim/right_resp_img.png,"[-0.5, 0]",right,stim/silver_coin.png,gold,,,,,training,,,silver,val,,,,,0.0,0.0,0.0,0.0,0.0,0.0,0.0,0.0,,,,,,,,,0.0,training_resp,,14.530004953034222,8.501543509075418,0.0,,right,silver,0.0,51.0,2.0,right,2021_Nov_16_1616,habits_v_MRI,5.0,40.0,1.0,5.0,30.0,15.0,5.0,15.0,30.0,30.0,60.0,RR,59.99006051408996,
19.0,0.0,resp1,stim/right_resp_img.png,"[-0.5, 0]",right,stim/silver_coin.png,gold,,,,,training,,,silver,val,,,,,0.0,0.0,0.0,0.0,0.0,0.0,0.0,0.0,,,,,,,,,0.0,training_resp,,15.047377090435477,9.018718877341598,0.0,,right,silver,0.0,51.0,2.0,right,2021_Nov_16_1616,habits_v_MRI,5.0,40.0,1.0,5.0,30.0,15.0,5.0,15.0,30.0,30.0,60.0,RR,59.99006051408996,
19.0,0.0,resp1,stim/right_resp_img.png,"[-0.5, 0]",right,stim/silver_coin.png,gold,,,,,training,,,silver,val,,,,,0.0,0.0,0.0,0.0,0.0,0.0,0.0,0.0,,,,,,,,,0.0,training_resp,,15.52997328224592,9.501667259493844,0.0,,right,silver,0.0,51.0,2.0,right,2021_Nov_16_1616,habits_v_MRI,5.0,40.0,1.0,5.0,30.0,15.0,5.0,15.0,30.0,30.0,60.0,RR,59.99006051408996,
19.0,0.0,resp1,stim/right_resp_img.png,"[-0.5, 0]",right,stim/silver_coin.png,gold,,,,,training,,,silver,val,,,,,0.0,0.0,0.0,0.0,0.0,0.0,0.0,0.0,,,,,,,,,0.0,training_resp,,16.047403776086867,10.018930895254016,0.0,,right,silver,0.0,51.0,2.0,right,2021_Nov_16_1616,habits_v_MRI,5.0,40.0,1.0,5.0,30.0,15.0,5.0,15.0,30.0,30.0,60.0,RR,59.99006051408996,
19.0,0.0,resp1,stim/right_resp_img.png,"[-0.5, 0]",right,stim/silver_coin.png,gold,,,,,training,,,silver,val,,,,,0.0,0.0,0.0,0.0,0.0,0.0,0.0,0.0,,,,,,,,,0.0,training_resp,,16.51357809943147,10.485342456027864,0.0,,right,silver,0.0,51.0,2.0,right,2021_Nov_16_1616,habits_v_MRI,5.0,40.0,1.0,5.0,30.0,15.0,5.0,15.0,30.0,30.0,60.0,RR,59.99006051408996,
19.0,0.0,resp1,stim/right_resp_img.png,"[-0.5, 0]",right,stim/silver_coin.png,gold,,,,,training,,,silver,val,,,,,0.0,0.0,0.0,0.0,0.0,0.0,0.0,0.0,,,,,,,,,0.0,training_resp,,17.013647745829076,10.985509460559117,0.0,13.0,right,silver,1.0,51.0,2.0,right,2021_Nov_16_1616,habits_v_MRI,5.0,40.0,1.0,5.0,30.0,15.0,5.0,15.0,30.0,30.0,60.0,RR,59.99006051408996,
19.0,0.0,resp1,stim/right_resp_img.png,"[-0.5, 0]",right,stim/silver_coin.png,gold,,,,,training,,,silver,val,,,,,0.0,0.0,0.0,0.0,0.0,0.0,0.0,0.0,,,,,,,,,0.0,training_resp,,17.530583530664444,11.502447004895656,0.0,,right,silver,0.0,51.0,2.0,right,2021_Nov_16_1616,habits_v_MRI,5.0,40.0,1.0,5.0,30.0,15.0,5.0,15.0,30.0,30.0,60.0,RR,59.99006051408996,
19.0,0.0,resp1,stim/right_resp_img.png,"[-0.5, 0]",right,stim/silver_coin.png,gold,,,,,training,,,silver,val,,,,,0.0,0.0,0.0,0.0,0.0,0.0,0.0,0.0,,,,,,,,,0.0,training_resp,,18.04789056698792,12.019440266536549,0.0,,right,silver,0.0,51.0,2.0,right,2021_Nov_16_1616,habits_v_MRI,5.0,40.0,1.0,5.0,30.0,15.0,5.0,15.0,30.0,30.0,60.0,RR,59.99006051408996,
19.0,0.0,resp1,stim/right_resp_img.png,"[-0.5, 0]",right,stim/silver_coin.png,gold,,,,,training,,,silver,val,,,,,0.0,0.0,0.0,0.0,0.0,0.0,0.0,0.0,,,,,,,,,0.0,training_resp,,18.4822161430493,12.453356175450608,0.0,,right,silver,0.0,51.0,2.0,right,2021_Nov_16_1616,habits_v_MRI,5.0,40.0,1.0,5.0,30.0,15.0,5.0,15.0,30.0,30.0,60.0,RR,59.99006051408996,
19.0,0.0,resp1,stim/right_resp_img.png,"[-0.5, 0]",right,stim/silver_coin.png,gold,,,,,training,,,silver,val,,,,,0.0,0.0,0.0,0.0,0.0,0.0,0.0,0.0,,,,,,,,,0.0,training_resp,,18.998903547180817,12.97005032422021,0.0,,right,silver,0.0,51.0,2.0,right,2021_Nov_16_1616,habits_v_MRI,5.0,40.0,1.0,5.0,30.0,15.0,5.0,15.0,30.0,30.0,60.0,RR,59.99006051408996,
19.0,0.0,resp1,stim/right_resp_img.png,"[-0.5, 0]",right,stim/silver_coin.png,gold,,,,,training,,,silver,val,,,,,0.0,0.0,0.0,0.0,0.0,0.0,0.0,0.0,,,,,,,,,0.0,training_resp,,19.582085149129853,13.553268582327291,0.0,,right,silver,0.0,51.0,2.0,right,2021_Nov_16_1616,habits_v_MRI,5.0,40.0,1.0,5.0,30.0,15.0,5.0,15.0,30.0,30.0,60.0,RR,59.99006051408996,
19.0,0.0,resp1,stim/right_resp_img.png,"[-0.5, 0]",right,stim/silver_coin.png,gold,,,,,training,,,silver,val,,,,,0.0,0.0,0.0,0.0,0.0,0.0,0.0,0.0,,,,,,,,,0.0,training_resp,,19.93190760235302,13.90339542645961,0.0,,right,silver,0.0,51.0,2.0,right,2021_Nov_16_1616,habits_v_MRI,5.0,40.0,1.0,5.0,30.0,15.0,5.0,15.0,30.0,30.0,60.0,RR,59.99006051408996,
19.0,0.0,resp1,stim/right_resp_img.png,"[-0.5, 0]",right,stim/silver_coin.png,gold,,,,,training,,,silver,val,,,,,0.0,0.0,0.0,0.0,0.0,0.0,0.0,0.0,,,,,,,,,0.0,training_resp,,20.43205290660262,14.403593515278772,0.0,,right,silver,0.0,51.0,2.0,right,2021_Nov_16_1616,habits_v_MRI,5.0,40.0,1.0,5.0,30.0,15.0,5.0,15.0,30.0,30.0,60.0,RR,59.99006051408996,
19.0,0.0,resp1,stim/right_resp_img.png,"[-0.5, 0]",right,stim/silver_coin.png,gold,,,,,training,,,silver,val,,,,,0.0,0.0,0.0,0.0,0.0,0.0,0.0,0.0,,,,,,,,,0.0,training_resp,,20.948907461948693,14.920388834550977,0.0,,right,silver,0.0,51.0,2.0,right,2021_Nov_16_1616,habits_v_MRI,5.0,40.0,1.0,5.0,30.0,15.0,5.0,15.0,30.0,30.0,60.0,RR,59.99006051408996,
19.0,0.0,resp1,stim/right_resp_img.png,"[-0.5, 0]",right,stim/silver_coin.png,gold,,,,,training,,,silver,val,,,,,0.0,0.0,0.0,0.0,0.0,0.0,0.0,0.0,,,,,,,,,0.0,training_resp,,21.849194463342428,15.820723928743972,0.0,,right,silver,0.0,51.0,2.0,right,2021_Nov_16_1616,habits_v_MRI,5.0,40.0,1.0,5.0,30.0,15.0,5.0,15.0,30.0,30.0,60.0,RR,59.99006051408996,
19.0,0.0,resp1,stim/right_resp_img.png,"[-0.5, 0]",right,stim/silver_coin.png,gold,,,,,training,,,silver,val,,,,,0.0,0.0,0.0,0.0,0.0,0.0,0.0,0.0,,,,,,,,,0.0,training_resp,,22.33253638399765,16.304075526539236,0.0,,right,silver,0.0,51.0,2.0,right,2021_Nov_16_1616,habits_v_MRI,5.0,40.0,1.0,5.0,30.0,15.0,5.0,15.0,30.0,30.0,60.0,RR,59.99006051408996,
19.0,0.0,resp1,stim/right_resp_img.png,"[-0.5, 0]",right,stim/silver_coin.png,gold,,,,,training,,,silver,val,,,,,0.0,0.0,0.0,0.0,0.0,0.0,0.0,0.0,,,,,,,,,0.0,training_resp,,22.83268960588612,16.804232853930444,0.0,,right,silver,0.0,51.0,2.0,right,2021_Nov_16_1616,habits_v_MRI,5.0,40.0,1.0,5.0,30.0,15.0,5.0,15.0,30.0,30.0,60.0,RR,59.99006051408996,
19.0,0.0,resp1,stim/right_resp_img.png,"[-0.5, 0]",right,stim/silver_coin.png,gold,,,,,training,,,silver,val,,,,,0.0,0.0,0.0,0.0,0.0,0.0,0.0,0.0,,,,,,,,,0.0,training_resp,,23.282900700345635,17.254439842654392,0.0,,right,silver,0.0,51.0,2.0,right,2021_Nov_16_1616,habits_v_MRI,5.0,40.0,1.0,5.0,30.0,15.0,5.0,15.0,30.0,30.0,60.0,RR,59.99006051408996,
19.0,0.0,resp1,stim/right_resp_img.png,"[-0.5, 0]",right,stim/silver_coin.png,gold,,,,,training,,,silver,val,,,,,0.0,0.0,0.0,0.0,0.0,0.0,0.0,0.0,,,,,,,,,0.0,training_resp,,23.69975018245168,17.67118991399184,0.0,21.0,right,silver,1.0,51.0,2.0,right,2021_Nov_16_1616,habits_v_MRI,5.0,40.0,1.0,5.0,30.0,15.0,5.0,15.0,30.0,30.0,60.0,RR,59.99006051408996,
19.0,0.0,resp1,stim/right_resp_img.png,"[-0.5, 0]",right,stim/silver_coin.png,gold,,,,,training,,,silver,val,,,,,0.0,0.0,0.0,0.0,0.0,0.0,0.0,0.0,,,,,,,,,0.0,training_resp,,24.60045682126656,18.57184406137094,0.0,,right,silver,0.0,51.0,2.0,right,2021_Nov_16_1616,habits_v_MRI,5.0,40.0,1.0,5.0,30.0,15.0,5.0,15.0,30.0,30.0,60.0,RR,59.99006051408996,
19.0,0.0,resp1,stim/right_resp_img.png,"[-0.5, 0]",right,stim/silver_coin.png,gold,,,,,training,,,silver,val,,,,,0.0,0.0,0.0,0.0,0.0,0.0,0.0,0.0,,,,,,,,,0.0,training_resp,,25.183342243311927,19.15488050598651,0.0,,right,silver,0.0,51.0,2.0,right,2021_Nov_16_1616,habits_v_MRI,5.0,40.0,1.0,5.0,30.0,15.0,5.0,15.0,30.0,30.0,60.0,RR,59.99006051408996,
19.0,0.0,resp1,stim/right_resp_img.png,"[-0.5, 0]",right,stim/silver_coin.png,gold,,,,,training,,,silver,val,,,,,0.0,0.0,0.0,0.0,0.0,0.0,0.0,0.0,,,,,,,,,0.0,training_resp,,25.58331356360577,19.554863849421963,0.0,,right,silver,0.0,51.0,2.0,right,2021_Nov_16_1616,habits_v_MRI,5.0,40.0,1.0,5.0,30.0,15.0,5.0,15.0,30.0,30.0,60.0,RR,59.99006051408996,
19.0,0.0,resp1,stim/right_resp_img.png,"[-0.5, 0]",right,stim/silver_coin.png,gold,,,,,training,,,silver,val,,,,,0.0,0.0,0.0,0.0,0.0,0.0,0.0,0.0,,,,,,,,,0.0,training_resp,,26.033419382059947,20.00496614887379,0.0,,right,silver,0.0,51.0,2.0,right,2021_Nov_16_1616,habits_v_MRI,5.0,40.0,1.0,5.0,30.0,15.0,5.0,15.0,30.0,30.0,60.0,RR,59.99006051408996,
19.0,0.0,resp1,stim/right_resp_img.png,"[-0.5, 0]",right,stim/silver_coin.png,gold,,,,,training,,,silver,val,,,,,0.0,0.0,0.0,0.0,0.0,0.0,0.0,0.0,,,,,,,,,0.0,training_resp,,26.46701975655742,20.43856007186696,0.0,,right,silver,0.0,51.0,2.0,right,2021_Nov_16_1616,habits_v_MRI,5.0,40.0,1.0,5.0,30.0,15.0,5.0,15.0,30.0,30.0,60.0,RR,59.99006051408996,
19.0,0.0,resp1,stim/right_resp_img.png,"[-0.5, 0]",right,stim/silver_coin.png,gold,,,,,training,,,silver,val,,,,,0.0,0.0,0.0,0.0,0.0,0.0,0.0,0.0,,,,,,,,,0.0,training_resp,,26.91701326100156,20.88855416304432,0.0,,right,silver,0.0,51.0,2.0,right,2021_Nov_16_1616,habits_v_MRI,5.0,40.0,1.0,5.0,30.0,15.0,5.0,15.0,30.0,30.0,60.0,RR,59.99006051408996,
19.0,0.0,resp1,stim/right_resp_img.png,"[-0.5, 0]",right,stim/silver_coin.png,gold,,,,,training,,,silver,val,,,,,0.0,0.0,0.0,0.0,0.0,0.0,0.0,0.0,,,,,,,,,0.0,training_resp,,27.350467891432345,21.322009379742667,0.0,,right,silver,0.0,51.0,2.0,right,2021_Nov_16_1616,habits_v_MRI,5.0,40.0,1.0,5.0,30.0,15.0,5.0,15.0,30.0,30.0,60.0,RR,59.99006051408996,
19.0,0.0,resp1,stim/right_resp_img.png,"[-0.5, 0]",right,stim/silver_coin.png,gold,,,,,training,,,silver,val,,,,,0.0,0.0,0.0,0.0,0.0,0.0,0.0,0.0,,,,,,,,,0.0,training_resp,,27.750662666512653,21.72220914019272,0.0,,right,silver,0.0,51.0,2.0,right,2021_Nov_16_1616,habits_v_MRI,5.0,40.0,1.0,5.0,30.0,15.0,5.0,15.0,30.0,30.0,60.0,RR,59.99006051408996,
19.0,0.0,resp1,stim/right_resp_img.png,"[-0.5, 0]",right,stim/silver_coin.png,gold,,,,,training,,,silver,val,,,,,0.0,0.0,0.0,0.0,0.0,0.0,0.0,0.0,,,,,,,,,0.0,training_resp,,28.168053483823314,22.139436618424952,0.0,,right,silver,0.0,51.0,2.0,right,2021_Nov_16_1616,habits_v_MRI,5.0,40.0,1.0,5.0,30.0,15.0,5.0,15.0,30.0,30.0,60.0,RR,59.99006051408996,
19.0,0.0,resp1,stim/right_resp_img.png,"[-0.5, 0]",right,stim/silver_coin.png,gold,,,,,training,,,silver,val,,,,,0.0,0.0,0.0,0.0,0.0,0.0,0.0,0.0,,,,,,,,,0.0,training_resp,,28.634122824529182,22.60567721584812,0.0,,right,silver,0.0,51.0,2.0,right,2021_Nov_16_1616,habits_v_MRI,5.0,40.0,1.0,5.0,30.0,15.0,5.0,15.0,30.0,30.0,60.0,RR,59.99006051408996,
19.0,0.0,resp1,stim/right_resp_img.png,"[-0.5, 0]",right,stim/silver_coin.png,gold,,,,,training,,,silver,val,,,,,0.0,0.0,0.0,0.0,0.0,0.0,0.0,0.0,,,,,,,,,0.0,training_resp,,29.10187071491964,23.07298934017308,0.0,,right,silver,0.0,51.0,2.0,right,2021_Nov_16_1616,habits_v_MRI,5.0,40.0,1.0,5.0,30.0,15.0,5.0,15.0,30.0,30.0,60.0,RR,59.99006051408996,
19.0,0.0,resp1,stim/right_resp_img.png,"[-0.5, 0]",right,stim/silver_coin.png,gold,,,,,training,,,silver,val,,,,,0.0,0.0,0.0,0.0,0.0,0.0,0.0,0.0,,,,,,,,,0.0,training_resp,,29.484993491554636,23.456351406872272,0.0,,right,silver,0.0,51.0,2.0,right,2021_Nov_16_1616,habits_v_MRI,5.0,40.0,1.0,5.0,30.0,15.0,5.0,15.0,30.0,30.0,60.0,RR,59.99006051408996,
19.0,0.0,resp1,stim/right_resp_img.png,"[-0.5, 0]",right,stim/silver_coin.png,gold,,,,,training,,,silver,val,,,,,0.0,0.0,0.0,0.0,0.0,0.0,0.0,0.0,,,,,,,,,0.0,training_resp,,29.96804304420948,23.939529988449067,0.0,,right,silver,0.0,51.0,2.0,right,2021_Nov_16_1616,habits_v_MRI,5.0,40.0,1.0,5.0,30.0,15.0,5.0,15.0,30.0,30.0,60.0,RR,59.99006051408996,
19.0,0.0,resp1,stim/right_resp_img.png,"[-0.5, 0]",right,stim/silver_coin.png,gold,,,,,training,,,silver,val,,,,,0.0,0.0,0.0,0.0,0.0,0.0,0.0,0.0,,,,,,,,,0.0,training_resp,,30.35129807540216,24.322841616580263,0.0,,right,silver,0.0,51.0,2.0,right,2021_Nov_16_1616,habits_v_MRI,5.0,40.0,1.0,5.0,30.0,15.0,5.0,15.0,30.0,30.0,60.0,RR,59.99006051408996,
19.0,0.0,resp1,stim/right_resp_img.png,"[-0.5, 0]",right,stim/silver_coin.png,gold,,,,,training,,,silver,val,,,,,0.0,0.0,0.0,0.0,0.0,0.0,0.0,0.0,,,,,,,,,0.0,training_resp,,30.768114127451557,24.739658841630444,0.0,,right,silver,0.0,51.0,2.0,right,2021_Nov_16_1616,habits_v_MRI,5.0,40.0,1.0,5.0,30.0,15.0,5.0,15.0,30.0,30.0,60.0,RR,59.99006051408996,
19.0,0.0,resp1,stim/right_resp_img.png,"[-0.5, 0]",right,stim/silver_coin.png,gold,,,,,training,,,silver,val,,,,,0.0,0.0,0.0,0.0,0.0,0.0,0.0,0.0,,,,,,,,,0.0,training_resp,,31.15177090791985,25.123186299810182,0.0,,right,silver,0.0,51.0,2.0,right,2021_Nov_16_1616,habits_v_MRI,5.0,40.0,1.0,5.0,30.0,15.0,5.0,15.0,30.0,30.0,60.0,RR,59.99006051408996,
19.0,0.0,resp1,stim/right_resp_img.png,"[-0.5, 0]",right,stim/silver_coin.png,gold,,,,,training,,,silver,val,,,,,0.0,0.0,0.0,0.0,0.0,0.0,0.0,0.0,,,,,,,,,0.0,training_resp,,31.63511693407781,25.606639361474663,0.0,,right,silver,0.0,51.0,2.0,right,2021_Nov_16_1616,habits_v_MRI,5.0,40.0,1.0,5.0,30.0,15.0,5.0,15.0,30.0,30.0,60.0,RR,59.99006051408996,
19.0,0.0,resp1,stim/right_resp_img.png,"[-0.5, 0]",right,stim/silver_coin.png,gold,,,,,training,,,silver,val,,,,,0.0,0.0,0.0,0.0,0.0,0.0,0.0,0.0,,,,,,,,,0.0,training_resp,,32.01895523490384,25.990506693720818,0.0,,right,silver,0.0,51.0,2.0,right,2021_Nov_16_1616,habits_v_MRI,5.0,40.0,1.0,5.0,30.0,15.0,5.0,15.0,30.0,30.0,60.0,RR,59.99006051408996,
19.0,0.0,resp1,stim/right_resp_img.png,"[-0.5, 0]",right,stim/silver_coin.png,gold,,,,,training,,,silver,val,,,,,0.0,0.0,0.0,0.0,0.0,0.0,0.0,0.0,,,,,,,,,0.0,training_resp,,32.46883583907038,26.44021486840211,0.0,,right,silver,0.0,51.0,2.0,right,2021_Nov_16_1616,habits_v_MRI,5.0,40.0,1.0,5.0,30.0,15.0,5.0,15.0,30.0,30.0,60.0,RR,59.99006051408996,
19.0,0.0,resp1,stim/right_resp_img.png,"[-0.5, 0]",right,stim/silver_coin.png,gold,,,,,training,,,silver,val,,,,,0.0,0.0,0.0,0.0,0.0,0.0,0.0,0.0,,,,,,,,,0.0,training_resp,,32.91893139388412,26.89047992019914,0.0,,right,silver,0.0,51.0,2.0,right,2021_Nov_16_1616,habits_v_MRI,5.0,40.0,1.0,5.0,30.0,15.0,5.0,15.0,30.0,30.0,60.0,RR,59.99006051408996,
19.0,0.0,resp1,stim/right_resp_img.png,"[-0.5, 0]",right,stim/silver_coin.png,gold,,,,,training,,,silver,val,,,,,0.0,0.0,0.0,0.0,0.0,0.0,0.0,0.0,,,,,,,,,0.0,training_resp,,33.40229912032373,27.373819201719016,0.0,10.0,right,silver,1.0,51.0,2.0,right,2021_Nov_16_1616,habits_v_MRI,5.0,40.0,1.0,5.0,30.0,15.0,5.0,15.0,30.0,30.0,60.0,RR,59.99006051408996,
19.0,0.0,resp1,stim/right_resp_img.png,"[-0.5, 0]",right,stim/silver_coin.png,gold,,,,,training,,,silver,val,,,,,0.0,0.0,0.0,0.0,0.0,0.0,0.0,0.0,,,,,,,,,0.0,training_resp,,34.16913762036711,28.140679695177823,0.0,,right,silver,0.0,51.0,2.0,right,2021_Nov_16_1616,habits_v_MRI,5.0,40.0,1.0,5.0,30.0,15.0,5.0,15.0,30.0,30.0,60.0,RR,59.99006051408996,
19.0,0.0,resp1,stim/right_resp_img.png,"[-0.5, 0]",right,stim/silver_coin.png,gold,,,,,training,,,silver,val,,,,,0.0,0.0,0.0,0.0,0.0,0.0,0.0,0.0,,,,,,,,,0.0,training_resp,,34.60335498768836,28.574702053098008,0.0,,right,silver,0.0,51.0,2.0,right,2021_Nov_16_1616,habits_v_MRI,5.0,40.0,1.0,5.0,30.0,15.0,5.0,15.0,30.0,30.0,60.0,RR,59.99006051408996,
19.0,0.0,resp1,stim/right_resp_img.png,"[-0.5, 0]",right,stim/silver_coin.png,gold,,,,,training,,,silver,val,,,,,0.0,0.0,0.0,0.0,0.0,0.0,0.0,0.0,,,,,,,,,0.0,training_resp,,35.05277959187515,29.024282371625304,0.0,,right,silver,0.0,51.0,2.0,right,2021_Nov_16_1616,habits_v_MRI,5.0,40.0,1.0,5.0,30.0,15.0,5.0,15.0,30.0,30.0,60.0,RR,59.99006051408996,
19.0,0.0,resp1,stim/right_resp_img.png,"[-0.5, 0]",right,stim/silver_coin.png,gold,,,,,training,,,silver,val,,,,,0.0,0.0,0.0,0.0,0.0,0.0,0.0,0.0,,,,,,,,,0.0,training_resp,,35.48624653858133,29.4577616348397,0.0,,right,silver,0.0,51.0,2.0,right,2021_Nov_16_1616,habits_v_MRI,5.0,40.0,1.0,5.0,30.0,15.0,5.0,15.0,30.0,30.0,60.0,RR,59.99006051408996,
19.0,0.0,resp1,stim/right_resp_img.png,"[-0.5, 0]",right,stim/silver_coin.png,gold,,,,,training,,,silver,val,,,,,0.0,0.0,0.0,0.0,0.0,0.0,0.0,0.0,,,,,,,,,0.0,training_resp,,35.98637336818501,29.957914856728166,0.0,,right,silver,0.0,51.0,2.0,right,2021_Nov_16_1616,habits_v_MRI,5.0,40.0,1.0,5.0,30.0,15.0,5.0,15.0,30.0,30.0,60.0,RR,59.99006051408996,
19.0,0.0,resp1,stim/right_resp_img.png,"[-0.5, 0]",right,stim/silver_coin.png,gold,,,,,training,,,silver,val,,,,,0.0,0.0,0.0,0.0,0.0,0.0,0.0,0.0,,,,,,,,,0.0,training_resp,,36.36983631225303,30.34136489778757,0.0,,right,silver,0.0,51.0,2.0,right,2021_Nov_16_1616,habits_v_MRI,5.0,40.0,1.0,5.0,30.0,15.0,5.0,15.0,30.0,30.0,60.0,RR,59.99006051408996,
19.0,0.0,resp1,stim/right_resp_img.png,"[-0.5, 0]",right,stim/silver_coin.png,gold,,,,,training,,,silver,val,,,,,0.0,0.0,0.0,0.0,0.0,0.0,0.0,0.0,,,,,,,,,0.0,training_resp,,36.80330120609142,30.774844454135746,0.0,,right,silver,0.0,51.0,2.0,right,2021_Nov_16_1616,habits_v_MRI,5.0,40.0,1.0,5.0,30.0,15.0,5.0,15.0,30.0,30.0,60.0,RR,59.99006051408996,
19.0,0.0,resp1,stim/right_resp_img.png,"[-0.5, 0]",right,stim/silver_coin.png,gold,,,,,training,,,silver,val,,,,,0.0,0.0,0.0,0.0,0.0,0.0,0.0,0.0,,,,,,,,,0.0,training_resp,,37.28682171460241,31.25833358499221,0.0,,right,silver,0.0,51.0,2.0,right,2021_Nov_16_1616,habits_v_MRI,5.0,40.0,1.0,5.0,30.0,15.0,5.0,15.0,30.0,30.0,60.0,RR,59.99006051408996,
19.0,0.0,resp1,stim/right_resp_img.png,"[-0.5, 0]",right,stim/silver_coin.png,gold,,,,,training,,,silver,val,,,,,0.0,0.0,0.0,0.0,0.0,0.0,0.0,0.0,,,,,,,,,0.0,training_resp,,37.720244380878285,31.691788508556783,0.0,,right,silver,0.0,51.0,2.0,right,2021_Nov_16_1616,habits_v_MRI,5.0,40.0,1.0,5.0,30.0,15.0,5.0,15.0,30.0,30.0,60.0,RR,59.99006051408996,
19.0,0.0,resp1,stim/right_resp_img.png,"[-0.5, 0]",right,stim/silver_coin.png,gold,,,,,training,,,silver,val,,,,,0.0,0.0,0.0,0.0,0.0,0.0,0.0,0.0,,,,,,,,,0.0,training_resp,,38.170465152477846,32.14200224215165,0.0,17.0,right,silver,1.0,51.0,2.0,right,2021_Nov_16_1616,habits_v_MRI,5.0,40.0,1.0,5.0,30.0,15.0,5.0,15.0,30.0,30.0,60.0,RR,59.99006051408996,
19.0,0.0,resp1,stim/right_resp_img.png,"[-0.5, 0]",right,stim/silver_coin.png,gold,,,,,training,,,silver,val,,,,,0.0,0.0,0.0,0.0,0.0,0.0,0.0,0.0,,,,,,,,,0.0,training_resp,,39.23743177228607,33.20892692776397,0.0,,right,silver,0.0,51.0,2.0,right,2021_Nov_16_1616,habits_v_MRI,5.0,40.0,1.0,5.0,30.0,15.0,5.0,15.0,30.0,30.0,60.0,RR,59.99006051408996,
19.0,0.0,resp1,stim/right_resp_img.png,"[-0.5, 0]",right,stim/silver_coin.png,gold,,,,,training,,,silver,val,,,,,0.0,0.0,0.0,0.0,0.0,0.0,0.0,0.0,,,,,,,,,0.0,training_resp,,39.93762094643898,33.909153050975874,0.0,,right,silver,0.0,51.0,2.0,right,2021_Nov_16_1616,habits_v_MRI,5.0,40.0,1.0,5.0,30.0,15.0,5.0,15.0,30.0,30.0,60.0,RR,59.99006051408996,
19.0,0.0,resp1,stim/right_resp_img.png,"[-0.5, 0]",right,stim/silver_coin.png,gold,,,,,training,,,silver,val,,,,,0.0,0.0,0.0,0.0,0.0,0.0,0.0,0.0,,,,,,,,,0.0,training_resp,,40.60449865367264,34.576003779424354,0.0,,right,silver,0.0,51.0,2.0,right,2021_Nov_16_1616,habits_v_MRI,5.0,40.0,1.0,5.0,30.0,15.0,5.0,15.0,30.0,30.0,60.0,RR,59.99006051408996,
19.0,0.0,resp1,stim/right_resp_img.png,"[-0.5, 0]",right,stim/silver_coin.png,gold,,,,,training,,,silver,val,,,,,0.0,0.0,0.0,0.0,0.0,0.0,0.0,0.0,,,,,,,,,0.0,training_resp,,41.2879941186402,35.259501883760095,0.0,,right,silver,0.0,51.0,2.0,right,2021_Nov_16_1616,habits_v_MRI,5.0,40.0,1.0,5.0,30.0,15.0,5.0,15.0,30.0,30.0,60.0,RR,59.99006051408996,
19.0,0.0,resp1,stim/right_resp_img.png,"[-0.5, 0]",right,stim/silver_coin.png,gold,,,,,training,,,silver,val,,,,,0.0,0.0,0.0,0.0,0.0,0.0,0.0,0.0,,,,,,,,,0.0,training_resp,,41.95486772037111,35.92640715627931,0.0,,right,silver,0.0,51.0,2.0,right,2021_Nov_16_1616,habits_v_MRI,5.0,40.0,1.0,5.0,30.0,15.0,5.0,15.0,30.0,30.0,60.0,RR,59.99006051408996,
19.0,0.0,resp1,stim/right_resp_img.png,"[-0.5, 0]",right,stim/silver_coin.png,gold,,,,,training,,,silver,val,,,,,0.0,0.0,0.0,0.0,0.0,0.0,0.0,0.0,,,,,,,,,0.0,training_resp,,42.52171748108231,36.49325251812115,0.0,,right,silver,0.0,51.0,2.0,right,2021_Nov_16_1616,habits_v_MRI,5.0,40.0,1.0,5.0,30.0,15.0,5.0,15.0,30.0,30.0,60.0,RR,59.99006051408996,
19.0,0.0,resp1,stim/right_resp_img.png,"[-0.5, 0]",right,stim/silver_coin.png,gold,,,,,training,,,silver,val,,,,,0.0,0.0,0.0,0.0,0.0,0.0,0.0,0.0,,,,,,,,,0.0,training_resp,,43.15522008691914,37.12673958181404,0.0,,right,silver,0.0,51.0,2.0,right,2021_Nov_16_1616,habits_v_MRI,5.0,40.0,1.0,5.0,30.0,15.0,5.0,15.0,30.0,30.0,60.0,RR,59.99006051408996,
19.0,0.0,resp1,stim/right_resp_img.png,"[-0.5, 0]",right,stim/silver_coin.png,gold,,,,,training,,,silver,val,,,,,0.0,0.0,0.0,0.0,0.0,0.0,0.0,0.0,,,,,,,,,0.0,training_resp,,43.82205322035588,37.79358473839238,0.0,,right,silver,0.0,51.0,2.0,right,2021_Nov_16_1616,habits_v_MRI,5.0,40.0,1.0,5.0,30.0,15.0,5.0,15.0,30.0,30.0,60.0,RR,59.99006051408996,
19.0,0.0,resp1,stim/right_resp_img.png,"[-0.5, 0]",right,stim/silver_coin.png,gold,,,,,training,,,silver,val,,,,,0.0,0.0,0.0,0.0,0.0,0.0,0.0,0.0,,,,,,,,,0.0,training_resp,,44.4556508383248,38.42716857371852,0.0,,right,silver,0.0,51.0,2.0,right,2021_Nov_16_1616,habits_v_MRI,5.0,40.0,1.0,5.0,30.0,15.0,5.0,15.0,30.0,30.0,60.0,RR,59.99006051408996,
19.0,0.0,resp1,stim/right_resp_img.png,"[-0.5, 0]",right,stim/silver_coin.png,gold,,,,,training,,,silver,val,,,,,0.0,0.0,0.0,0.0,0.0,0.0,0.0,0.0,,,,,,,,,0.0,training_resp,,44.92243247758597,38.89397279312834,0.0,,right,silver,0.0,51.0,2.0,right,2021_Nov_16_1616,habits_v_MRI,5.0,40.0,1.0,5.0,30.0,15.0,5.0,15.0,30.0,30.0,60.0,RR,59.99006051408996,
19.0,0.0,resp1,stim/right_resp_img.png,"[-0.5, 0]",right,stim/silver_coin.png,gold,,,,,training,,,silver,val,,,,,0.0,0.0,0.0,0.0,0.0,0.0,0.0,0.0,,,,,,,,,0.0,training_resp,,45.52274619392119,39.49413753952831,0.0,,right,silver,0.0,51.0,2.0,right,2021_Nov_16_1616,habits_v_MRI,5.0,40.0,1.0,5.0,30.0,15.0,5.0,15.0,30.0,30.0,60.0,RR,59.99006051408996,
19.0,0.0,resp1,stim/right_resp_img.png,"[-0.5, 0]",right,stim/silver_coin.png,gold,,,,,training,,,silver,val,,,,,0.0,0.0,0.0,0.0,0.0,0.0,0.0,0.0,,,,,,,,,0.0,training_resp,,46.10589612531476,40.07757192128338,0.0,,right,silver,0.0,51.0,2.0,right,2021_Nov_16_1616,habits_v_MRI,5.0,40.0,1.0,5.0,30.0,15.0,5.0,15.0,30.0,30.0,60.0,RR,59.99006051408996,
19.0,0.0,resp1,stim/right_resp_img.png,"[-0.5, 0]",right,stim/silver_coin.png,gold,,,,,training,,,silver,val,,,,,0.0,0.0,0.0,0.0,0.0,0.0,0.0,0.0,,,,,,,,,0.0,training_resp,,46.639622097602114,40.61115302913822,0.0,,right,silver,0.0,51.0,2.0,right,2021_Nov_16_1616,habits_v_MRI,5.0,40.0,1.0,5.0,30.0,15.0,5.0,15.0,30.0,30.0,60.0,RR,59.99006051408996,
19.0,0.0,resp1,stim/right_resp_img.png,"[-0.5, 0]",right,stim/silver_coin.png,gold,,,,,training,,,silver,val,,,,,0.0,0.0,0.0,0.0,0.0,0.0,0.0,0.0,,,,,,,,,0.0,training_resp,,47.22318697441369,41.19472816959024,0.0,,right,silver,0.0,51.0,2.0,right,2021_Nov_16_1616,habits_v_MRI,5.0,40.0,1.0,5.0,30.0,15.0,5.0,15.0,30.0,30.0,60.0,RR,59.99006051408996,
19.0,0.0,resp1,stim/right_resp_img.png,"[-0.5, 0]",right,stim/silver_coin.png,gold,,,,,training,,,silver,val,,,,,0.0,0.0,0.0,0.0,0.0,0.0,0.0,0.0,,,,,,,,,0.0,training_resp,,47.923320138361305,41.89485429553315,0.0,,right,silver,0.0,51.0,2.0,right,2021_Nov_16_1616,habits_v_MRI,5.0,40.0,1.0,5.0,30.0,15.0,5.0,15.0,30.0,30.0,60.0,RR,59.99006051408996,
19.0,0.0,resp1,stim/right_resp_img.png,"[-0.5, 0]",right,stim/silver_coin.png,gold,,,,,training,,,silver,val,,,,,0.0,0.0,0.0,0.0,0.0,0.0,0.0,0.0,,,,,,,,,0.0,training_resp,,48.47350698104128,42.44503380707465,0.0,,right,silver,0.0,51.0,2.0,right,2021_Nov_16_1616,habits_v_MRI,5.0,40.0,1.0,5.0,30.0,15.0,5.0,15.0,30.0,30.0,60.0,RR,59.99006051408996,
19.0,0.0,resp1,stim/right_resp_img.png,"[-0.5, 0]",right,stim/silver_coin.png,gold,,,,,training,,,silver,val,,,,,0.0,0.0,0.0,0.0,0.0,0.0,0.0,0.0,,,,,,,,,0.0,training_resp,,49.00696111284197,42.97850582702085,0.0,5.0,right,silver,1.0,51.0,2.0,right,2021_Nov_16_1616,habits_v_MRI,5.0,40.0,1.0,5.0,30.0,15.0,5.0,15.0,30.0,30.0,60.0,RR,59.99006051408996,
19.0,0.0,resp1,stim/right_resp_img.png,"[-0.5, 0]",right,stim/silver_coin.png,gold,,,,,training,,,silver,val,,,,,0.0,0.0,0.0,0.0,0.0,0.0,0.0,0.0,,,,,,,,,0.0,training_resp,,50.190813900204375,44.1622354502324,0.0,,right,silver,0.0,51.0,2.0,right,2021_Nov_16_1616,habits_v_MRI,5.0,40.0,1.0,5.0,30.0,15.0,5.0,15.0,30.0,30.0,60.0,RR,59.99006051408996,
19.0,0.0,resp1,stim/right_resp_img.png,"[-0.5, 0]",right,stim/silver_coin.png,gold,,,,,training,,,silver,val,,,,,0.0,0.0,0.0,0.0,0.0,0.0,0.0,0.0,,,,,,,,,0.0,ITI_start,20.0,50.70721509470605,44.678968894295394,,,,,,51.0,2.0,right,2021_Nov_16_1616,habits_v_MRI,5.0,40.0,1.0,5.0,30.0,15.0,5.0,15.0,30.0,30.0,60.0,RR,59.99006051408996,
19.0,1.0,resp2,stim/left_resp_img.png,"[0.5, 0]",left,stim/gold_coin.png,gold,,,,,training,,,gold,deval,,,,,0.0,0.0,0.0,0.0,0.0,1.0,1.0,1.0,,,,,,,,,0.0,training_period_start,60.0,70.75288167153485,0.0,1.0,23.0,,,,51.0,2.0,right,2021_Nov_16_1616,habits_v_MRI,5.0,40.0,1.0,5.0,30.0,15.0,5.0,15.0,30.0,30.0,60.0,RR,59.99006051408996,
19.0,1.0,resp2,stim/left_resp_img.png,"[0.5, 0]",left,stim/gold_coin.png,gold,,,,,training,,,gold,deval,,,,,0.0,0.0,0.0,0.0,0.0,1.0,1.0,1.0,,,,,,,,,0.0,training_resp,,72.04727738630027,1.3148034051992,1.0,,left,gold,0.0,51.0,2.0,right,2021_Nov_16_1616,habits_v_MRI,5.0,40.0,1.0,5.0,30.0,15.0,5.0,15.0,30.0,30.0,60.0,RR,59.99006051408996,
19.0,1.0,resp2,stim/left_resp_img.png,"[0.5, 0]",left,stim/gold_coin.png,gold,,,,,training,,,gold,deval,,,,,0.0,0.0,0.0,0.0,0.0,1.0,1.0,1.0,,,,,,,,,0.0,training_resp,,72.46403948054649,1.7316121261101216,1.0,,left,gold,0.0,51.0,2.0,right,2021_Nov_16_1616,habits_v_MRI,5.0,40.0,1.0,5.0,30.0,15.0,5.0,15.0,30.0,30.0,60.0,RR,59.99006051408996,
19.0,1.0,resp2,stim/left_resp_img.png,"[0.5, 0]",left,stim/gold_coin.png,gold,,,,,training,,,gold,deval,,,,,0.0,0.0,0.0,0.0,0.0,1.0,1.0,1.0,,,,,,,,,0.0,training_resp,,72.86416622227989,2.1317033846862614,1.0,,left,gold,0.0,51.0,2.0,right,2021_Nov_16_1616,habits_v_MRI,5.0,40.0,1.0,5.0,30.0,15.0,5.0,15.0,30.0,30.0,60.0,RR,59.99006051408996,
19.0,1.0,resp2,stim/left_resp_img.png,"[0.5, 0]",left,stim/gold_coin.png,gold,,,,,training,,,gold,deval,,,,,0.0,0.0,0.0,0.0,0.0,1.0,1.0,1.0,,,,,,,,,0.0,training_resp,,73.29797597555444,2.5655175365973264,1.0,,left,gold,0.0,51.0,2.0,right,2021_Nov_16_1616,habits_v_MRI,5.0,40.0,1.0,5.0,30.0,15.0,5.0,15.0,30.0,30.0,60.0,RR,59.99006051408996,
19.0,1.0,resp2,stim/left_resp_img.png,"[0.5, 0]",left,stim/gold_coin.png,gold,,,,,training,,,gold,deval,,,,,0.0,0.0,0.0,0.0,0.0,1.0,1.0,1.0,,,,,,,,,0.0,training_resp,,73.71463132766075,2.9820550032891333,1.0,,left,gold,0.0,51.0,2.0,right,2021_Nov_16_1616,habits_v_MRI,5.0,40.0,1.0,5.0,30.0,15.0,5.0,15.0,30.0,30.0,60.0,RR,59.99006051408996,
19.0,1.0,resp2,stim/left_resp_img.png,"[0.5, 0]",left,stim/gold_coin.png,gold,,,,,training,,,gold,deval,,,,,0.0,0.0,0.0,0.0,0.0,1.0,1.0,1.0,,,,,,,,,0.0,training_resp,,74.11491525010206,3.3824846697971225,1.0,,left,gold,0.0,51.0,2.0,right,2021_Nov_16_1616,habits_v_MRI,5.0,40.0,1.0,5.0,30.0,15.0,5.0,15.0,30.0,30.0,60.0,RR,59.99006051408996,
19.0,1.0,resp2,stim/left_resp_img.png,"[0.5, 0]",left,stim/gold_coin.png,gold,,,,,training,,,gold,deval,,,,,0.0,0.0,0.0,0.0,0.0,1.0,1.0,1.0,,,,,,,,,0.0,training_resp,,74.56499848840758,3.832571427104994,1.0,,left,gold,0.0,51.0,2.0,right,2021_Nov_16_1616,habits_v_MRI,5.0,40.0,1.0,5.0,30.0,15.0,5.0,15.0,30.0,30.0,60.0,RR,59.99006051408996,
19.0,1.0,resp2,stim/left_resp_img.png,"[0.5, 0]",left,stim/gold_coin.png,gold,,,,,training,,,gold,deval,,,,,0.0,0.0,0.0,0.0,0.0,1.0,1.0,1.0,,,,,,,,,0.0,training_resp,,75.01472719036974,4.282283413922414,1.0,,left,gold,0.0,51.0,2.0,right,2021_Nov_16_1616,habits_v_MRI,5.0,40.0,1.0,5.0,30.0,15.0,5.0,15.0,30.0,30.0,60.0,RR,59.99006051408996,
19.0,1.0,resp2,stim/left_resp_img.png,"[0.5, 0]",left,stim/gold_coin.png,gold,,,,,training,,,gold,deval,,,,,0.0,0.0,0.0,0.0,0.0,1.0,1.0,1.0,,,,,,,,,0.0,training_resp,,75.39815992978401,4.6657214316073805,1.0,,left,gold,0.0,51.0,2.0,right,2021_Nov_16_1616,habits_v_MRI,5.0,40.0,1.0,5.0,30.0,15.0,5.0,15.0,30.0,30.0,60.0,RR,59.99006051408996,
19.0,1.0,resp2,stim/left_resp_img.png,"[0.5, 0]",left,stim/gold_coin.png,gold,,,,,training,,,gold,deval,,,,,0.0,0.0,0.0,0.0,0.0,1.0,1.0,1.0,,,,,,,,,0.0,training_resp,,75.81496982346289,5.082541002659127,1.0,,left,gold,0.0,51.0,2.0,right,2021_Nov_16_1616,habits_v_MRI,5.0,40.0,1.0,5.0,30.0,15.0,5.0,15.0,30.0,30.0,60.0,RR,59.99006051408996,
19.0,1.0,resp2,stim/left_resp_img.png,"[0.5, 0]",left,stim/gold_coin.png,gold,,,,,training,,,gold,deval,,,,,0.0,0.0,0.0,0.0,0.0,1.0,1.0,1.0,,,,,,,,,0.0,training_resp,,76.24867312773131,5.516047537792474,1.0,,left,gold,0.0,51.0,2.0,right,2021_Nov_16_1616,habits_v_MRI,5.0,40.0,1.0,5.0,30.0,15.0,5.0,15.0,30.0,30.0,60.0,RR,59.99006051408996,
19.0,1.0,resp2,stim/left_resp_img.png,"[0.5, 0]",left,stim/gold_coin.png,gold,,,,,training,,,gold,deval,,,,,0.0,0.0,0.0,0.0,0.0,1.0,1.0,1.0,,,,,,,,,0.0,training_resp,,76.69857836468145,5.966148664243519,1.0,,left,gold,0.0,51.0,2.0,right,2021_Nov_16_1616,habits_v_MRI,5.0,40.0,1.0,5.0,30.0,15.0,5.0,15.0,30.0,30.0,60.0,RR,59.99006051408996,
19.0,1.0,resp2,stim/left_resp_img.png,"[0.5, 0]",left,stim/gold_coin.png,gold,,,,,training,,,gold,deval,,,,,0.0,0.0,0.0,0.0,0.0,1.0,1.0,1.0,,,,,,,,,0.0,training_resp,,77.11542550101876,6.382991401711479,1.0,,left,gold,0.0,51.0,2.0,right,2021_Nov_16_1616,habits_v_MRI,5.0,40.0,1.0,5.0,30.0,15.0,5.0,15.0,30.0,30.0,60.0,RR,59.99006051408996,
19.0,1.0,resp2,stim/left_resp_img.png,"[0.5, 0]",left,stim/gold_coin.png,gold,,,,,training,,,gold,deval,,,,,0.0,0.0,0.0,0.0,0.0,1.0,1.0,1.0,,,,,,,,,0.0,training_resp,,77.53216442861594,6.799735314678401,1.0,,left,gold,0.0,51.0,2.0,right,2021_Nov_16_1616,habits_v_MRI,5.0,40.0,1.0,5.0,30.0,15.0,5.0,15.0,30.0,30.0,60.0,RR,59.99006051408996,
19.0,1.0,resp2,stim/left_resp_img.png,"[0.5, 0]",left,stim/gold_coin.png,gold,,,,,training,,,gold,deval,,,,,0.0,0.0,0.0,0.0,0.0,1.0,1.0,1.0,,,,,,,,,0.0,training_resp,,77.98233622778207,7.249907113844529,1.0,,left,gold,0.0,51.0,2.0,right,2021_Nov_16_1616,habits_v_MRI,5.0,40.0,1.0,5.0,30.0,15.0,5.0,15.0,30.0,30.0,60.0,RR,59.99006051408996,
19.0,1.0,resp2,stim/left_resp_img.png,"[0.5, 0]",left,stim/gold_coin.png,gold,,,,,training,,,gold,deval,,,,,0.0,0.0,0.0,0.0,0.0,1.0,1.0,1.0,,,,,,,,,0.0,training_resp,,78.43276491202414,7.700067183002829,1.0,,left,gold,0.0,51.0,2.0,right,2021_Nov_16_1616,habits_v_MRI,5.0,40.0,1.0,5.0,30.0,15.0,5.0,15.0,30.0,30.0,60.0,RR,59.99006051408996,
19.0,1.0,resp2,stim/left_resp_img.png,"[0.5, 0]",left,stim/gold_coin.png,gold,,,,,training,,,gold,deval,,,,,0.0,0.0,0.0,0.0,0.0,1.0,1.0,1.0,,,,,,,,,0.0,training_resp,,78.84929915284738,8.116847165394574,1.0,,left,gold,0.0,51.0,2.0,right,2021_Nov_16_1616,habits_v_MRI,5.0,40.0,1.0,5.0,30.0,15.0,5.0,15.0,30.0,30.0,60.0,RR,59.99006051408996,
19.0,1.0,resp2,stim/left_resp_img.png,"[0.5, 0]",left,stim/gold_coin.png,gold,,,,,training,,,gold,deval,,,,,0.0,0.0,0.0,0.0,0.0,1.0,1.0,1.0,,,,,,,,,0.0,training_resp,,79.26608675974421,8.533632133156061,1.0,,left,gold,0.0,51.0,2.0,right,2021_Nov_16_1616,habits_v_MRI,5.0,40.0,1.0,5.0,30.0,15.0,5.0,15.0,30.0,30.0,60.0,RR,59.99006051408996,
19.0,1.0,resp2,stim/left_resp_img.png,"[0.5, 0]",left,stim/gold_coin.png,gold,,,,,training,,,gold,deval,,,,,0.0,0.0,0.0,0.0,0.0,1.0,1.0,1.0,,,,,,,,,0.0,training_resp,,79.64955644845031,8.917131146416068,1.0,,left,gold,0.0,51.0,2.0,right,2021_Nov_16_1616,habits_v_MRI,5.0,40.0,1.0,5.0,30.0,15.0,5.0,15.0,30.0,30.0,60.0,RR,59.99006051408996,
19.0,1.0,resp2,stim/left_resp_img.png,"[0.5, 0]",left,stim/gold_coin.png,gold,,,,,training,,,gold,deval,,,,,0.0,0.0,0.0,0.0,0.0,1.0,1.0,1.0,,,,,,,,,0.0,training_resp,,80.0663153170608,9.333890894893557,1.0,,left,gold,0.0,51.0,2.0,right,2021_Nov_16_1616,habits_v_MRI,5.0,40.0,1.0,5.0,30.0,15.0,5.0,15.0,30.0,30.0,60.0,RR,59.99006051408996,
19.0,1.0,resp2,stim/left_resp_img.png,"[0.5, 0]",left,stim/gold_coin.png,gold,,,,,training,,,gold,deval,,,,,0.0,0.0,0.0,0.0,0.0,1.0,1.0,1.0,,,,,,,,,0.0,training_resp,,80.46644968306646,9.734019102761522,1.0,,left,gold,0.0,51.0,2.0,right,2021_Nov_16_1616,habits_v_MRI,5.0,40.0,1.0,5.0,30.0,15.0,5.0,15.0,30.0,30.0,60.0,RR,59.99006051408996,
19.0,1.0,resp2,stim/left_resp_img.png,"[0.5, 0]",left,stim/gold_coin.png,gold,,,,,training,,,gold,deval,,,,,0.0,0.0,0.0,0.0,0.0,1.0,1.0,1.0,,,,,,,,,0.0,training_resp,,80.8999048997648,10.167473146459088,1.0,,left,gold,0.0,51.0,2.0,right,2021_Nov_16_1616,habits_v_MRI,5.0,40.0,1.0,5.0,30.0,15.0,5.0,15.0,30.0,30.0,60.0,RR,59.99006051408996,
19.0,1.0,resp2,stim/left_resp_img.png,"[0.5, 0]",left,stim/gold_coin.png,gold,,,,,training,,,gold,deval,,,,,0.0,0.0,0.0,0.0,0.0,1.0,1.0,1.0,,,,,,,,,0.0,training_resp,,81.36680589104071,10.634355663089082,1.0,20.0,left,gold,1.0,51.0,2.0,right,2021_Nov_16_1616,habits_v_MRI,5.0,40.0,1.0,5.0,30.0,15.0,5.0,15.0,30.0,30.0,60.0,RR,59.99006051408996,
19.0,1.0,resp2,stim/left_resp_img.png,"[0.5, 0]",left,stim/gold_coin.png,gold,,,,,training,,,gold,deval,,,,,0.0,0.0,0.0,0.0,0.0,1.0,1.0,1.0,,,,,,,,,0.0,training_resp,,81.96682020137087,11.234391380567104,1.0,,left,gold,0.0,51.0,2.0,right,2021_Nov_16_1616,habits_v_MRI,5.0,40.0,1.0,5.0,30.0,15.0,5.0,15.0,30.0,30.0,60.0,RR,59.99006051408996,
19.0,1.0,resp2,stim/left_resp_img.png,"[0.5, 0]",left,stim/gold_coin.png,gold,,,,,training,,,gold,deval,,,,,0.0,0.0,0.0,0.0,0.0,1.0,1.0,1.0,,,,,,,,,0.0,training_resp,,82.4336745662149,11.701238414039835,1.0,,left,gold,0.0,51.0,2.0,right,2021_Nov_16_1616,habits_v_MRI,5.0,40.0,1.0,5.0,30.0,15.0,5.0,15.0,30.0,30.0,60.0,RR,59.99006051408996,
19.0,1.0,resp2,stim/left_resp_img.png,"[0.5, 0]",left,stim/gold_coin.png,gold,,,,,training,,,gold,deval,,,,,0.0,0.0,0.0,0.0,0.0,1.0,1.0,1.0,,,,,,,,,0.0,training_resp,,82.90061133354902,12.168057882459834,1.0,,left,gold,0.0,51.0,2.0,right,2021_Nov_16_1616,habits_v_MRI,5.0,40.0,1.0,5.0,30.0,15.0,5.0,15.0,30.0,30.0,60.0,RR,59.99006051408996,
19.0,1.0,resp2,stim/left_resp_img.png,"[0.5, 0]",left,stim/gold_coin.png,gold,,,,,training,,,gold,deval,,,,,0.0,0.0,0.0,0.0,0.0,1.0,1.0,1.0,,,,,,,,,0.0,training_resp,,83.74999816739,13.017910979920998,1.0,,left,gold,0.0,51.0,2.0,right,2021_Nov_16_1616,habits_v_MRI,5.0,40.0,1.0,5.0,30.0,15.0,5.0,15.0,30.0,30.0,60.0,RR,59.99006051408996,
19.0,1.0,resp2,stim/left_resp_img.png,"[0.5, 0]",left,stim/gold_coin.png,gold,,,,,training,,,gold,deval,,,,,0.0,0.0,0.0,0.0,0.0,1.0,1.0,1.0,,,,,,,,,0.0,training_resp,,84.61774201085791,13.885273014893755,1.0,,left,gold,0.0,51.0,2.0,right,2021_Nov_16_1616,habits_v_MRI,5.0,40.0,1.0,5.0,30.0,15.0,5.0,15.0,30.0,30.0,60.0,RR,59.99006051408996,
19.0,1.0,resp2,stim/left_resp_img.png,"[0.5, 0]",left,stim/gold_coin.png,gold,,,,,training,,,gold,deval,,,,,0.0,0.0,0.0,0.0,0.0,1.0,1.0,1.0,,,,,,,,,0.0,training_resp,,85.45185885298997,14.719252617331222,1.0,,left,gold,0.0,51.0,2.0,right,2021_Nov_16_1616,habits_v_MRI,5.0,40.0,1.0,5.0,30.0,15.0,5.0,15.0,30.0,30.0,60.0,RR,59.99006051408996,
19.0,1.0,resp2,stim/left_resp_img.png,"[0.5, 0]",left,stim/gold_coin.png,gold,,,,,training,,,gold,deval,,,,,0.0,0.0,0.0,0.0,0.0,1.0,1.0,1.0,,,,,,,,,0.0,training_resp,,86.18485657405108,15.452406346099451,1.0,,left,gold,0.0,51.0,2.0,right,2021_Nov_16_1616,habits_v_MRI,5.0,40.0,1.0,5.0,30.0,15.0,5.0,15.0,30.0,30.0,60.0,RR,59.99006051408996,
19.0,1.0,resp2,stim/left_resp_img.png,"[0.5, 0]",left,stim/gold_coin.png,gold,,,,,training,,,gold,deval,,,,,0.0,0.0,0.0,0.0,0.0,1.0,1.0,1.0,,,,,,,,,0.0,training_resp,,86.86834558774717,16.13590327743441,1.0,,left,gold,0.0,51.0,2.0,right,2021_Nov_16_1616,habits_v_MRI,5.0,40.0,1.0,5.0,30.0,15.0,5.0,15.0,30.0,30.0,60.0,RR,59.99006051408996,
19.0,1.0,resp2,stim/left_resp_img.png,"[0.5, 0]",left,stim/gold_coin.png,gold,,,,,training,,,gold,deval,,,,,0.0,0.0,0.0,0.0,0.0,1.0,1.0,1.0,,,,,,,,,0.0,training_resp,,87.70193898282014,16.969487288733944,1.0,,left,gold,0.0,51.0,2.0,right,2021_Nov_16_1616,habits_v_MRI,5.0,40.0,1.0,5.0,30.0,15.0,5.0,15.0,30.0,30.0,60.0,RR,59.99006051408996,
19.0,1.0,resp2,stim/left_resp_img.png,"[0.5, 0]",left,stim/gold_coin.png,gold,,,,,training,,,gold,deval,,,,,0.0,0.0,0.0,0.0,0.0,1.0,1.0,1.0,,,,,,,,,0.0,training_resp,,88.56893035280518,17.836442002793774,1.0,,left,gold,0.0,51.0,2.0,right,2021_Nov_16_1616,habits_v_MRI,5.0,40.0,1.0,5.0,30.0,15.0,5.0,15.0,30.0,30.0,60.0,RR,59.99006051408996,
19.0,1.0,resp2,stim/left_resp_img.png,"[0.5, 0]",left,stim/gold_coin.png,gold,,,,,training,,,gold,deval,,,,,0.0,0.0,0.0,0.0,0.0,1.0,1.0,1.0,,,,,,,,,0.0,training_resp,,89.36891551455483,18.636594315525144,1.0,,left,gold,0.0,51.0,2.0,right,2021_Nov_16_1616,habits_v_MRI,5.0,40.0,1.0,5.0,30.0,15.0,5.0,15.0,30.0,30.0,60.0,RR,59.99006051408996,
19.0,1.0,resp2,stim/left_resp_img.png,"[0.5, 0]",left,stim/gold_coin.png,gold,,,,,training,,,gold,deval,,,,,0.0,0.0,0.0,0.0,0.0,1.0,1.0,1.0,,,,,,,,,0.0,training_resp,,90.13595899473876,19.403491758275777,1.0,,left,gold,0.0,51.0,2.0,right,2021_Nov_16_1616,habits_v_MRI,5.0,40.0,1.0,5.0,30.0,15.0,5.0,15.0,30.0,30.0,60.0,RR,59.99006051408996,
19.0,1.0,resp2,stim/left_resp_img.png,"[0.5, 0]",left,stim/gold_coin.png,gold,,,,,training,,,gold,deval,,,,,0.0,0.0,0.0,0.0,0.0,1.0,1.0,1.0,,,,,,,,,0.0,training_resp,,90.9195692075882,20.187059743562717,1.0,,left,gold,0.0,51.0,2.0,right,2021_Nov_16_1616,habits_v_MRI,5.0,40.0,1.0,5.0,30.0,15.0,5.0,15.0,30.0,30.0,60.0,RR,59.99006051408996,
19.0,1.0,resp2,stim/left_resp_img.png,"[0.5, 0]",left,stim/gold_coin.png,gold,,,,,training,,,gold,deval,,,,,0.0,0.0,0.0,0.0,0.0,1.0,1.0,1.0,,,,,,,,,0.0,training_resp,,91.7865063266363,21.054055512417108,1.0,,left,gold,0.0,51.0,2.0,right,2021_Nov_16_1616,habits_v_MRI,5.0,40.0,1.0,5.0,30.0,15.0,5.0,15.0,30.0,30.0,60.0,RR,59.99006051408996,
19.0,1.0,resp2,stim/left_resp_img.png,"[0.5, 0]",left,stim/gold_coin.png,gold,,,,,training,,,gold,deval,,,,,0.0,0.0,0.0,0.0,0.0,1.0,1.0,1.0,,,,,,,,,0.0,training_resp,,92.57000334607436,21.837558103259653,1.0,,left,gold,0.0,51.0,2.0,right,2021_Nov_16_1616,habits_v_MRI,5.0,40.0,1.0,5.0,30.0,15.0,5.0,15.0,30.0,30.0,60.0,RR,59.99006051408996,
19.0,1.0,resp2,stim/left_resp_img.png,"[0.5, 0]",left,stim/gold_coin.png,gold,,,,,training,,,gold,deval,,,,,0.0,0.0,0.0,0.0,0.0,1.0,1.0,1.0,,,,,,,,,0.0,training_resp,,93.28691496746616,22.554464153014123,1.0,,left,gold,0.0,51.0,2.0,right,2021_Nov_16_1616,habits_v_MRI,5.0,40.0,1.0,5.0,30.0,15.0,5.0,15.0,30.0,30.0,60.0,RR,59.99006051408996,
19.0,1.0,resp2,stim/left_resp_img.png,"[0.5, 0]",left,stim/gold_coin.png,gold,,,,,training,,,gold,deval,,,,,0.0,0.0,0.0,0.0,0.0,1.0,1.0,1.0,,,,,,,,,0.0,training_resp,,93.92049293755554,23.18805795861408,1.0,,left,gold,0.0,51.0,2.0,right,2021_Nov_16_1616,habits_v_MRI,5.0,40.0,1.0,5.0,30.0,15.0,5.0,15.0,30.0,30.0,60.0,RR,59.99006051408996,
19.0,1.0,resp2,stim/left_resp_img.png,"[0.5, 0]",left,stim/gold_coin.png,gold,,,,,training,,,gold,deval,,,,,0.0,0.0,0.0,0.0,0.0,1.0,1.0,1.0,,,,,,,,,0.0,training_resp,,94.65412700618616,23.921648039948195,1.0,,left,gold,0.0,51.0,2.0,right,2021_Nov_16_1616,habits_v_MRI,5.0,40.0,1.0,5.0,30.0,15.0,5.0,15.0,30.0,30.0,60.0,RR,59.99006051408996,
19.0,1.0,resp2,stim/left_resp_img.png,"[0.5, 0]",left,stim/gold_coin.png,gold,,,,,training,,,gold,deval,,,,,0.0,0.0,0.0,0.0,0.0,1.0,1.0,1.0,,,,,,,,,0.0,training_resp,,94.90414027567022,24.171693860087544,1.0,,left,gold,0.0,51.0,2.0,right,2021_Nov_16_1616,habits_v_MRI,5.0,40.0,1.0,5.0,30.0,15.0,5.0,15.0,30.0,30.0,60.0,RR,59.99006051408996,
19.0,1.0,resp2,stim/left_resp_img.png,"[0.5, 0]",left,stim/gold_coin.png,gold,,,,,training,,,gold,deval,,,,,0.0,0.0,0.0,0.0,0.0,1.0,1.0,1.0,,,,,,,,,0.0,training_resp,,95.40425860113464,24.671770837390795,1.0,17.0,left,gold,1.0,51.0,2.0,right,2021_Nov_16_1616,habits_v_MRI,5.0,40.0,1.0,5.0,30.0,15.0,5.0,15.0,30.0,30.0,60.0,RR,59.99006051408996,
19.0,1.0,resp2,stim/left_resp_img.png,"[0.5, 0]",left,stim/gold_coin.png,gold,,,,,training,,,gold,deval,,,,,0.0,0.0,0.0,0.0,0.0,1.0,1.0,1.0,,,,,,,,,0.0,training_resp,,96.8880439121276,26.155589578673244,1.0,,left,gold,0.0,51.0,2.0,right,2021_Nov_16_1616,habits_v_MRI,5.0,40.0,1.0,5.0,30.0,15.0,5.0,15.0,30.0,30.0,60.0,RR,59.99006051408996,
19.0,1.0,resp2,stim/left_resp_img.png,"[0.5, 0]",left,stim/gold_coin.png,gold,,,,,training,,,gold,deval,,,,,0.0,0.0,0.0,0.0,0.0,1.0,1.0,1.0,,,,,,,,,0.0,training_resp,,98.18846527975984,27.455990712158385,1.0,,left,gold,0.0,51.0,2.0,right,2021_Nov_16_1616,habits_v_MRI,5.0,40.0,1.0,5.0,30.0,15.0,5.0,15.0,30.0,30.0,60.0,RR,59.99006051408996,
19.0,1.0,resp2,stim/left_resp_img.png,"[0.5, 0]",left,stim/gold_coin.png,gold,,,,,training,,,gold,deval,,,,,0.0,0.0,0.0,0.0,0.0,1.0,1.0,1.0,,,,,,,,,0.0,training_resp,,98.40509025147183,27.67266758880578,1.0,,left,gold,0.0,51.0,2.0,right,2021_Nov_16_1616,habits_v_MRI,5.0,40.0,1.0,5.0,30.0,15.0,5.0,15.0,30.0,30.0,60.0,RR,59.99006051408996,
19.0,1.0,resp2,stim/left_resp_img.png,"[0.5, 0]",left,stim/gold_coin.png,gold,,,,,training,,,gold,deval,,,,,0.0,0.0,0.0,0.0,0.0,1.0,1.0,1.0,,,,,,,,,0.0,training_resp,,99.78895729058422,29.056473046075556,1.0,,left,gold,0.0,51.0,2.0,right,2021_Nov_16_1616,habits_v_MRI,5.0,40.0,1.0,5.0,30.0,15.0,5.0,15.0,30.0,30.0,60.0,RR,59.99006051408996,
19.0,1.0,resp2,stim/left_resp_img.png,"[0.5, 0]",left,stim/gold_coin.png,gold,,,,,training,,,gold,deval,,,,,0.0,0.0,0.0,0.0,0.0,1.0,1.0,1.0,,,,,,,,,0.0,training_resp,,100.72253845725209,29.99006828851998,1.0,,left,gold,0.0,51.0,2.0,right,2021_Nov_16_1616,habits_v_MRI,5.0,40.0,1.0,5.0,30.0,15.0,5.0,15.0,30.0,30.0,60.0,RR,59.99006051408996,
19.0,1.0,resp2,stim/left_resp_img.png,"[0.5, 0]",left,stim/gold_coin.png,gold,,,,,training,,,gold,deval,,,,,0.0,0.0,0.0,0.0,0.0,1.0,1.0,1.0,,,,,,,,,0.0,training_resp,,101.63960860832594,30.907042254228145,1.0,,left,gold,0.0,51.0,2.0,right,2021_Nov_16_1616,habits_v_MRI,5.0,40.0,1.0,5.0,30.0,15.0,5.0,15.0,30.0,30.0,60.0,RR,59.99006051408996,
19.0,1.0,resp2,stim/left_resp_img.png,"[0.5, 0]",left,stim/gold_coin.png,gold,,,,,training,,,gold,deval,,,,,0.0,0.0,0.0,0.0,0.0,1.0,1.0,1.0,,,,,,,,,0.0,training_resp,,103.59004858252592,32.85757049592212,1.0,,left,gold,0.0,51.0,2.0,right,2021_Nov_16_1616,habits_v_MRI,5.0,40.0,1.0,5.0,30.0,15.0,5.0,15.0,30.0,30.0,60.0,RR,59.99006051408996,
19.0,1.0,resp2,stim/left_resp_img.png,"[0.5, 0]",left,stim/gold_coin.png,gold,,,,,training,,,gold,deval,,,,,0.0,0.0,0.0,0.0,0.0,1.0,1.0,1.0,,,,,,,,,0.0,training_resp,,104.64033380965702,33.90787478443235,1.0,,left,gold,0.0,51.0,2.0,right,2021_Nov_16_1616,habits_v_MRI,5.0,40.0,1.0,5.0,30.0,15.0,5.0,15.0,30.0,30.0,60.0,RR,59.99006051408996,
19.0,1.0,resp2,stim/left_resp_img.png,"[0.5, 0]",left,stim/gold_coin.png,gold,,,,,training,,,gold,deval,,,,,0.0,0.0,0.0,0.0,0.0,1.0,1.0,1.0,,,,,,,,,0.0,training_resp,,105.8239877752494,35.091498252004385,1.0,,left,gold,0.0,51.0,2.0,right,2021_Nov_16_1616,habits_v_MRI,5.0,40.0,1.0,5.0,30.0,15.0,5.0,15.0,30.0,30.0,60.0,RR,59.99006051408996,
19.0,1.0,resp2,stim/left_resp_img.png,"[0.5, 0]",left,stim/gold_coin.png,gold,,,,,training,,,gold,deval,,,,,0.0,0.0,0.0,0.0,0.0,1.0,1.0,1.0,,,,,,,,,0.0,training_resp,,106.77429666765966,36.04183881520294,1.0,,left,gold,0.0,51.0,2.0,right,2021_Nov_16_1616,habits_v_MRI,5.0,40.0,1.0,5.0,30.0,15.0,5.0,15.0,30.0,30.0,60.0,RR,59.99006051408996,
19.0,1.0,resp2,stim/left_resp_img.png,"[0.5, 0]",left,stim/gold_coin.png,gold,,,,,training,,,gold,deval,,,,,0.0,0.0,0.0,0.0,0.0,1.0,1.0,1.0,,,,,,,,,0.0,training_resp,,107.8246745611541,37.09221260342747,1.0,,left,gold,0.0,51.0,2.0,right,2021_Nov_16_1616,habits_v_MRI,5.0,40.0,1.0,5.0,30.0,15.0,5.0,15.0,30.0,30.0,60.0,RR,59.99006051408996,
19.0,1.0,resp2,stim/left_resp_img.png,"[0.5, 0]",left,stim/gold_coin.png,gold,,,,,training,,,gold,deval,,,,,0.0,0.0,0.0,0.0,0.0,1.0,1.0,1.0,,,,,,,,,0.0,training_resp,,109.05867152381688,38.32620956585743,1.0,,left,gold,0.0,51.0,2.0,right,2021_Nov_16_1616,habits_v_MRI,5.0,40.0,1.0,5.0,30.0,15.0,5.0,15.0,30.0,30.0,60.0,RR,59.99006051408996,
19.0,1.0,resp2,stim/left_resp_img.png,"[0.5, 0]",left,stim/gold_coin.png,gold,,,,,training,,,gold,deval,,,,,0.0,0.0,0.0,0.0,0.0,1.0,1.0,1.0,,,,,,,,,0.0,training_resp,,110.24227270460688,39.50980048300698,1.0,,left,gold,0.0,51.0,2.0,right,2021_Nov_16_1616,habits_v_MRI,5.0,40.0,1.0,5.0,30.0,15.0,5.0,15.0,30.0,30.0,60.0,RR,59.99006051408996,
19.0,1.0,resp2,stim/left_resp_img.png,"[0.5, 0]",left,stim/gold_coin.png,gold,,,,,training,,,gold,deval,,,,,0.0,0.0,0.0,0.0,0.0,1.0,1.0,1.0,,,,,,,,,0.0,training_resp,,112.0100220318418,41.27712049568072,1.0,,left,gold,0.0,51.0,2.0,right,2021_Nov_16_1616,habits_v_MRI,5.0,40.0,1.0,5.0,30.0,15.0,5.0,15.0,30.0,30.0,60.0,RR,59.99006051408996,
19.0,1.0,resp2,stim/left_resp_img.png,"[0.5, 0]",left,stim/gold_coin.png,gold,,,,,training,,,gold,deval,,,,,0.0,0.0,0.0,0.0,0.0,1.0,1.0,1.0,,,,,,,,,0.0,training_resp,,113.31016891961916,42.577606671024114,1.0,,left,gold,0.0,51.0,2.0,right,2021_Nov_16_1616,habits_v_MRI,5.0,40.0,1.0,5.0,30.0,15.0,5.0,15.0,30.0,30.0,60.0,RR,59.99006051408996,
19.0,1.0,resp2,stim/left_resp_img.png,"[0.5, 0]",left,stim/gold_coin.png,gold,,,,,training,,,gold,deval,,,,,0.0,0.0,0.0,0.0,0.0,1.0,1.0,1.0,,,,,,,,,0.0,training_resp,,114.34365076315588,43.611180007923394,1.0,,left,gold,0.0,51.0,2.0,right,2021_Nov_16_1616,habits_v_MRI,5.0,40.0,1.0,5.0,30.0,15.0,5.0,15.0,30.0,30.0,60.0,RR,59.99006051408996,
19.0,1.0,resp2,stim/left_resp_img.png,"[0.5, 0]",left,stim/gold_coin.png,gold,,,,,training,,,gold,deval,,,,,0.0,0.0,0.0,0.0,0.0,1.0,1.0,1.0,,,,,,,,,0.0,training_resp,,115.39414243702775,44.66156317992136,1.0,13.0,left,gold,1.0,51.0,2.0,right,2021_Nov_16_1616,habits_v_MRI,5.0,40.0,1.0,5.0,30.0,15.0,5.0,15.0,30.0,30.0,60.0,RR,59.99006051408996,
19.0,1.0,resp2,stim/left_resp_img.png,"[0.5, 0]",left,stim/gold_coin.png,gold,,,,,training,,,gold,deval,,,,,0.0,0.0,0.0,0.0,0.0,1.0,1.0,1.0,,,,,,,,,0.0,training_resp,,117.26128189708106,46.52911289362237,1.0,,left,gold,0.0,51.0,2.0,right,2021_Nov_16_1616,habits_v_MRI,5.0,40.0,1.0,5.0,30.0,15.0,5.0,15.0,30.0,30.0,60.0,RR,59.99006051408996,
19.0,1.0,resp2,stim/left_resp_img.png,"[0.5, 0]",left,stim/gold_coin.png,gold,,,,,training,,,gold,deval,,,,,0.0,0.0,0.0,0.0,0.0,1.0,1.0,1.0,,,,,,,,,0.0,training_resp,,119.59570327680558,48.86289000837132,1.0,,left,gold,0.0,51.0,2.0,right,2021_Nov_16_1616,habits_v_MRI,5.0,40.0,1.0,5.0,30.0,15.0,5.0,15.0,30.0,30.0,60.0,RR,59.99006051408996,
19.0,1.0,resp2,stim/left_resp_img.png,"[0.5, 0]",left,stim/gold_coin.png,gold,,,,,training,,,gold,deval,,,,,0.0,0.0,0.0,0.0,0.0,1.0,1.0,1.0,,,,,,,,,0.0,training_resp,,121.92954901163466,51.19680700218305,1.0,,left,gold,0.0,51.0,2.0,right,2021_Nov_16_1616,habits_v_MRI,5.0,40.0,1.0,5.0,30.0,15.0,5.0,15.0,30.0,30.0,60.0,RR,59.99006051408996,
19.0,1.0,resp2,stim/left_resp_img.png,"[0.5, 0]",left,stim/gold_coin.png,gold,,,,,training,,,gold,deval,,,,,0.0,0.0,0.0,0.0,0.0,1.0,1.0,1.0,,,,,,,,,0.0,training_resp,,123.94682892272247,53.21418045926839,1.0,,left,gold,0.0,51.0,2.0,right,2021_Nov_16_1616,habits_v_MRI,5.0,40.0,1.0,5.0,30.0,15.0,5.0,15.0,30.0,30.0,60.0,RR,59.99006051408996,
19.0,1.0,resp2,stim/left_resp_img.png,"[0.5, 0]",left,stim/gold_coin.png,gold,,,,,training,,,gold,deval,,,,,0.0,0.0,0.0,0.0,0.0,1.0,1.0,1.0,,,,,,,,,0.0,training_resp,,125.47999273915777,54.74751670565456,1.0,,left,gold,0.0,51.0,2.0,right,2021_Nov_16_1616,habits_v_MRI,5.0,40.0,1.0,5.0,30.0,15.0,5.0,15.0,30.0,30.0,60.0,RR,59.99006051408996,
19.0,1.0,resp2,stim/left_resp_img.png,"[0.5, 0]",left,stim/gold_coin.png,gold,,,,,training,,,gold,deval,,,,,0.0,0.0,0.0,0.0,0.0,1.0,1.0,1.0,,,,,,,,,0.0,training_resp,,127.78064665221608,57.04815976833925,1.0,,left,gold,0.0,51.0,2.0,right,2021_Nov_16_1616,habits_v_MRI,5.0,40.0,1.0,5.0,30.0,15.0,5.0,15.0,30.0,30.0,60.0,RR,59.99006051408996,
19.0,1.0,resp2,stim/left_resp_img.png,"[0.5, 0]",left,stim/gold_coin.png,gold,,,,,training,,,gold,deval,,,,,0.0,0.0,0.0,0.0,0.0,1.0,1.0,1.0,,,,,,,,,0.0,training_resp,,129.38117326633073,58.64868315681815,1.0,,left,gold,0.0,51.0,2.0,right,2021_Nov_16_1616,habits_v_MRI,5.0,40.0,1.0,5.0,30.0,15.0,5.0,15.0,30.0,30.0,60.0,RR,59.99006051408996,
19.0,1.0,resp2,stim/left_resp_img.png,"[0.5, 0]",left,stim/gold_coin.png,gold,,,,,training,,,gold,deval,,,,,0.0,0.0,0.0,0.0,0.0,1.0,1.0,1.0,,,,,,,,,0.0,ITI_start,18.33333333333333,130.41444338532165,59.6822905105073,,,,,,51.0,2.0,right,2021_Nov_16_1616,habits_v_MRI,5.0,40.0,1.0,5.0,30.0,15.0,5.0,15.0,30.0,30.0,60.0,RR,59.99006051408996,
19.0,0.0,resp1,stim/right_resp_img.png,"[-0.5, 0]",right,stim/silver_coin.png,gold,,,,,training,,,silver,val,,,,,0.0,0.0,0.0,0.0,1.0,0.0,2.0,0.0,,,,,,,,,0.0,training_period_start,52.5,148.7758614369668,0.0,2.0,19.0,,,,51.0,2.0,right,2021_Nov_16_1616,habits_v_MRI,5.0,40.0,1.0,5.0,30.0,15.0,5.0,15.0,30.0,30.0,60.0,RR,59.99006051408996,
19.0,0.0,resp1,stim/right_resp_img.png,"[-0.5, 0]",right,stim/silver_coin.png,gold,,,,,training,,,silver,val,,,,,0.0,0.0,0.0,0.0,1.0,0.0,2.0,0.0,,,,,,,,,0.0,training_resp,,150.08786110160872,1.3320006204303354,2.0,,right,silver,0.0,51.0,2.0,right,2021_Nov_16_1616,habits_v_MRI,5.0,40.0,1.0,5.0,30.0,15.0,5.0,15.0,30.0,30.0,60.0,RR,59.99006051408996,
19.0,0.0,resp1,stim/right_resp_img.png,"[-0.5, 0]",right,stim/silver_coin.png,gold,,,,,training,,,silver,val,,,,,0.0,0.0,0.0,0.0,1.0,0.0,2.0,0.0,,,,,,,,,0.0,training_resp,,150.8043868090026,2.048849486745894,2.0,,right,silver,0.0,51.0,2.0,right,2021_Nov_16_1616,habits_v_MRI,5.0,40.0,1.0,5.0,30.0,15.0,5.0,15.0,30.0,30.0,60.0,RR,59.99006051408996,
19.0,0.0,resp1,stim/right_resp_img.png,"[-0.5, 0]",right,stim/silver_coin.png,gold,,,,,training,,,silver,val,,,,,0.0,0.0,0.0,0.0,1.0,0.0,2.0,0.0,,,,,,,,,0.0,training_resp,,151.57181854895316,2.8161911997012794,2.0,,right,silver,0.0,51.0,2.0,right,2021_Nov_16_1616,habits_v_MRI,5.0,40.0,1.0,5.0,30.0,15.0,5.0,15.0,30.0,30.0,60.0,RR,59.99006051408996,
19.0,0.0,resp1,stim/right_resp_img.png,"[-0.5, 0]",right,stim/silver_coin.png,gold,,,,,training,,,silver,val,,,,,0.0,0.0,0.0,0.0,1.0,0.0,2.0,0.0,,,,,,,,,0.0,training_resp,,152.23852411983535,3.4827862163074315,2.0,,right,silver,0.0,51.0,2.0,right,2021_Nov_16_1616,habits_v_MRI,5.0,40.0,1.0,5.0,30.0,15.0,5.0,15.0,30.0,30.0,60.0,RR,59.99006051408996,
19.0,0.0,resp1,stim/right_resp_img.png,"[-0.5, 0]",right,stim/silver_coin.png,gold,,,,,training,,,silver,val,,,,,0.0,0.0,0.0,0.0,1.0,0.0,2.0,0.0,,,,,,,,,0.0,training_resp,,152.88840724597685,4.132974026724696,2.0,,right,silver,0.0,51.0,2.0,right,2021_Nov_16_1616,habits_v_MRI,5.0,40.0,1.0,5.0,30.0,15.0,5.0,15.0,30.0,30.0,60.0,RR,59.99006051408996,
19.0,0.0,resp1,stim/right_resp_img.png,"[-0.5, 0]",right,stim/silver_coin.png,gold,,,,,training,,,silver,val,,,,,0.0,0.0,0.0,0.0,1.0,0.0,2.0,0.0,,,,,,,,,0.0,training_resp,,153.72170739341527,4.966270948527381,2.0,,right,silver,0.0,51.0,2.0,right,2021_Nov_16_1616,habits_v_MRI,5.0,40.0,1.0,5.0,30.0,15.0,5.0,15.0,30.0,30.0,60.0,RR,59.99006051408996,
19.0,0.0,resp1,stim/right_resp_img.png,"[-0.5, 0]",right,stim/silver_coin.png,gold,,,,,training,,,silver,val,,,,,0.0,0.0,0.0,0.0,1.0,0.0,2.0,0.0,,,,,,,,,0.0,training_resp,,154.43871461343952,5.683247084263712,2.0,,right,silver,0.0,51.0,2.0,right,2021_Nov_16_1616,habits_v_MRI,5.0,40.0,1.0,5.0,30.0,15.0,5.0,15.0,30.0,30.0,60.0,RR,59.99006051408996,
19.0,0.0,resp1,stim/right_resp_img.png,"[-0.5, 0]",right,stim/silver_coin.png,gold,,,,,training,,,silver,val,,,,,0.0,0.0,0.0,0.0,1.0,0.0,2.0,0.0,,,,,,,,,0.0,training_resp,,155.32238884246908,6.566938028205186,2.0,,right,silver,0.0,51.0,2.0,right,2021_Nov_16_1616,habits_v_MRI,5.0,40.0,1.0,5.0,30.0,15.0,5.0,15.0,30.0,30.0,60.0,RR,59.99006051408996,
19.0,0.0,resp1,stim/right_resp_img.png,"[-0.5, 0]",right,stim/silver_coin.png,gold,,,,,training,,,silver,val,,,,,0.0,0.0,0.0,0.0,1.0,0.0,2.0,0.0,,,,,,,,,0.0,training_resp,,155.90600533084944,7.150579735869542,2.0,,right,silver,0.0,51.0,2.0,right,2021_Nov_16_1616,habits_v_MRI,5.0,40.0,1.0,5.0,30.0,15.0,5.0,15.0,30.0,30.0,60.0,RR,59.99006051408996,
19.0,0.0,resp1,stim/right_resp_img.png,"[-0.5, 0]",right,stim/silver_coin.png,gold,,,,,training,,,silver,val,,,,,0.0,0.0,0.0,0.0,1.0,0.0,2.0,0.0,,,,,,,,,0.0,training_resp,,156.77300960361026,8.017575504723936,2.0,,right,silver,0.0,51.0,2.0,right,2021_Nov_16_1616,habits_v_MRI,5.0,40.0,1.0,5.0,30.0,15.0,5.0,15.0,30.0,30.0,60.0,RR,59.99006051408996,
19.0,0.0,resp1,stim/right_resp_img.png,"[-0.5, 0]",right,stim/silver_coin.png,gold,,,,,training,,,silver,val,,,,,0.0,0.0,0.0,0.0,1.0,0.0,2.0,0.0,,,,,,,,,0.0,training_resp,,157.62322574178688,8.867801026673988,2.0,,right,silver,0.0,51.0,2.0,right,2021_Nov_16_1616,habits_v_MRI,5.0,40.0,1.0,5.0,30.0,15.0,5.0,15.0,30.0,30.0,60.0,RR,59.99006051408996,
19.0,0.0,resp1,stim/right_resp_img.png,"[-0.5, 0]",right,stim/silver_coin.png,gold,,,,,training,,,silver,val,,,,,0.0,0.0,0.0,0.0,1.0,0.0,2.0,0.0,,,,,,,,,0.0,training_resp,,158.44014478242025,9.68471918744035,2.0,,right,silver,0.0,51.0,2.0,right,2021_Nov_16_1616,habits_v_MRI,5.0,40.0,1.0,5.0,30.0,15.0,5.0,15.0,30.0,30.0,60.0,RR,59.99006051408996,
19.0,0.0,resp1,stim/right_resp_img.png,"[-0.5, 0]",right,stim/silver_coin.png,gold,,,,,training,,,silver,val,,,,,0.0,0.0,0.0,0.0,1.0,0.0,2.0,0.0,,,,,,,,,0.0,training_resp,,159.2746572154574,10.518616973655298,2.0,,right,silver,0.0,51.0,2.0,right,2021_Nov_16_1616,habits_v_MRI,5.0,40.0,1.0,5.0,30.0,15.0,5.0,15.0,30.0,30.0,60.0,RR,59.99006051408996,
19.0,0.0,resp1,stim/right_resp_img.png,"[-0.5, 0]",right,stim/silver_coin.png,gold,,,,,training,,,silver,val,,,,,0.0,0.0,0.0,0.0,1.0,0.0,2.0,0.0,,,,,,,,,0.0,training_resp,,160.17399350809865,11.418538002064452,2.0,,right,silver,0.0,51.0,2.0,right,2021_Nov_16_1616,habits_v_MRI,5.0,40.0,1.0,5.0,30.0,15.0,5.0,15.0,30.0,30.0,60.0,RR,59.99006051408996,
19.0,0.0,resp1,stim/right_resp_img.png,"[-0.5, 0]",right,stim/silver_coin.png,gold,,,,,training,,,silver,val,,,,,0.0,0.0,0.0,0.0,1.0,0.0,2.0,0.0,,,,,,,,,0.0,training_resp,,160.94094373541884,12.185513742035257,2.0,,right,silver,0.0,51.0,2.0,right,2021_Nov_16_1616,habits_v_MRI,5.0,40.0,1.0,5.0,30.0,15.0,5.0,15.0,30.0,30.0,60.0,RR,59.99006051408996,
19.0,0.0,resp1,stim/right_resp_img.png,"[-0.5, 0]",right,stim/silver_coin.png,gold,,,,,training,,,silver,val,,,,,0.0,0.0,0.0,0.0,1.0,0.0,2.0,0.0,,,,,,,,,0.0,training_resp,,161.92459400603548,13.16914700414054,2.0,,right,silver,0.0,51.0,2.0,right,2021_Nov_16_1616,habits_v_MRI,5.0,40.0,1.0,5.0,30.0,15.0,5.0,15.0,30.0,30.0,60.0,RR,59.99006051408996,
19.0,0.0,resp1,stim/right_resp_img.png,"[-0.5, 0]",right,stim/silver_coin.png,gold,,,,,training,,,silver,val,,,,,0.0,0.0,0.0,0.0,1.0,0.0,2.0,0.0,,,,,,,,,0.0,training_resp,,163.42506745434366,14.669616640312595,2.0,,right,silver,0.0,51.0,2.0,right,2021_Nov_16_1616,habits_v_MRI,5.0,40.0,1.0,5.0,30.0,15.0,5.0,15.0,30.0,30.0,60.0,RR,59.99006051408996,
19.0,0.0,resp1,stim/right_resp_img.png,"[-0.5, 0]",right,stim/silver_coin.png,gold,,,,,training,,,silver,val,,,,,0.0,0.0,0.0,0.0,1.0,0.0,2.0,0.0,,,,,,,,,0.0,training_resp,,164.1920267723035,15.436602057423444,2.0,,right,silver,0.0,51.0,2.0,right,2021_Nov_16_1616,habits_v_MRI,5.0,40.0,1.0,5.0,30.0,15.0,5.0,15.0,30.0,30.0,60.0,RR,59.99006051408996,
19.0,0.0,resp1,stim/right_resp_img.png,"[-0.5, 0]",right,stim/silver_coin.png,gold,,,,,training,,,silver,val,,,,,0.0,0.0,0.0,0.0,1.0,0.0,2.0,0.0,,,,,,,,,0.0,training_resp,,165.12491822056472,16.36989848059602,2.0,9.0,right,silver,1.0,51.0,2.0,right,2021_Nov_16_1616,habits_v_MRI,5.0,40.0,1.0,5.0,30.0,15.0,5.0,15.0,30.0,30.0,60.0,RR,59.99006051408996,
19.0,0.0,resp1,stim/right_resp_img.png,"[-0.5, 0]",right,stim/silver_coin.png,gold,,,,,training,,,silver,val,,,,,0.0,0.0,0.0,0.0,1.0,0.0,2.0,0.0,,,,,,,,,0.0,training_resp,,168.0097771699075,19.254058034392077,2.0,,right,silver,0.0,51.0,2.0,right,2021_Nov_16_1616,habits_v_MRI,5.0,40.0,1.0,5.0,30.0,15.0,5.0,15.0,30.0,30.0,60.0,RR,59.99006051408996,
19.0,0.0,resp1,stim/right_resp_img.png,"[-0.5, 0]",right,stim/silver_coin.png,gold,,,,,training,,,silver,val,,,,,0.0,0.0,0.0,0.0,1.0,0.0,2.0,0.0,,,,,,,,,0.0,training_resp,,170.57623867085204,21.821162920445204,2.0,,right,silver,0.0,51.0,2.0,right,2021_Nov_16_1616,habits_v_MRI,5.0,40.0,1.0,5.0,30.0,15.0,5.0,15.0,30.0,30.0,60.0,RR,59.99006051408996,
19.0,0.0,resp1,stim/right_resp_img.png,"[-0.5, 0]",right,stim/silver_coin.png,gold,,,,,training,,,silver,val,,,,,0.0,0.0,0.0,0.0,1.0,0.0,2.0,0.0,,,,,,,,,0.0,training_resp,,172.81089456076734,24.05542879109271,2.0,,right,silver,0.0,51.0,2.0,right,2021_Nov_16_1616,habits_v_MRI,5.0,40.0,1.0,5.0,30.0,15.0,5.0,15.0,30.0,30.0,60.0,RR,59.99006051408996,
19.0,0.0,resp1,stim/right_resp_img.png,"[-0.5, 0]",right,stim/silver_coin.png,gold,,,,,training,,,silver,val,,,,,0.0,0.0,0.0,0.0,1.0,0.0,2.0,0.0,,,,,,,,,0.0,training_resp,,175.14554995228536,26.389953100821003,2.0,,right,silver,0.0,51.0,2.0,right,2021_Nov_16_1616,habits_v_MRI,5.0,40.0,1.0,5.0,30.0,15.0,5.0,15.0,30.0,30.0,60.0,RR,59.99006051408996,
19.0,0.0,resp1,stim/right_resp_img.png,"[-0.5, 0]",right,stim/silver_coin.png,gold,,,,,training,,,silver,val,,,,,0.0,0.0,0.0,0.0,1.0,0.0,2.0,0.0,,,,,,,,,0.0,training_resp,,176.72880457318388,27.973342029144987,2.0,,right,silver,0.0,51.0,2.0,right,2021_Nov_16_1616,habits_v_MRI,5.0,40.0,1.0,5.0,30.0,15.0,5.0,15.0,30.0,30.0,60.0,RR,59.99006051408996,
19.0,0.0,resp1,stim/right_resp_img.png,"[-0.5, 0]",right,stim/silver_coin.png,gold,,,,,training,,,silver,val,,,,,0.0,0.0,0.0,0.0,1.0,0.0,2.0,0.0,,,,,,,,,0.0,training_resp,,178.5459379774984,29.790478366194293,2.0,,right,silver,0.0,51.0,2.0,right,2021_Nov_16_1616,habits_v_MRI,5.0,40.0,1.0,5.0,30.0,15.0,5.0,15.0,30.0,30.0,60.0,RR,59.99006051408996,
19.0,0.0,resp1,stim/right_resp_img.png,"[-0.5, 0]",right,stim/silver_coin.png,gold,,,,,training,,,silver,val,,,,,0.0,0.0,0.0,0.0,1.0,0.0,2.0,0.0,,,,,,,,,0.0,training_resp,,181.34613779652864,32.59096028935164,2.0,,right,silver,0.0,51.0,2.0,right,2021_Nov_16_1616,habits_v_MRI,5.0,40.0,1.0,5.0,30.0,15.0,5.0,15.0,30.0,30.0,60.0,RR,59.99006051408996,
19.0,0.0,resp1,stim/right_resp_img.png,"[-0.5, 0]",right,stim/silver_coin.png,gold,,,,,training,,,silver,val,,,,,0.0,0.0,0.0,0.0,1.0,0.0,2.0,0.0,,,,,,,,,0.0,training_resp,,182.59663345851004,33.84148820838891,2.0,,right,silver,0.0,51.0,2.0,right,2021_Nov_16_1616,habits_v_MRI,5.0,40.0,1.0,5.0,30.0,15.0,5.0,15.0,30.0,30.0,60.0,RR,59.99006051408996,
19.0,0.0,resp1,stim/right_resp_img.png,"[-0.5, 0]",right,stim/silver_coin.png,gold,,,,,training,,,silver,val,,,,,0.0,0.0,0.0,0.0,1.0,0.0,2.0,0.0,,,,,,,,,0.0,training_resp,,183.73088927054775,34.9754460810218,2.0,5.0,right,silver,1.0,51.0,2.0,right,2021_Nov_16_1616,habits_v_MRI,5.0,40.0,1.0,5.0,30.0,15.0,5.0,15.0,30.0,30.0,60.0,RR,59.99006051408996,
19.0,0.0,resp1,stim/right_resp_img.png,"[-0.5, 0]",right,stim/silver_coin.png,gold,,,,,training,,,silver,val,,,,,0.0,0.0,0.0,0.0,1.0,0.0,2.0,0.0,,,,,,,,,0.0,training_resp,,187.94885966251604,39.193390373839065,2.0,,right,silver,0.0,51.0,2.0,right,2021_Nov_16_1616,habits_v_MRI,5.0,40.0,1.0,5.0,30.0,15.0,5.0,15.0,30.0,30.0,60.0,RR,59.99006051408996,
19.0,0.0,resp1,stim/right_resp_img.png,"[-0.5, 0]",right,stim/silver_coin.png,gold,,,,,training,,,silver,val,,,,,0.0,0.0,0.0,0.0,1.0,0.0,2.0,0.0,,,,,,,,,0.0,training_resp,,190.8830346558243,42.12756741978228,2.0,,right,silver,0.0,51.0,2.0,right,2021_Nov_16_1616,habits_v_MRI,5.0,40.0,1.0,5.0,30.0,15.0,5.0,15.0,30.0,30.0,60.0,RR,59.99006051408996,
19.0,0.0,resp1,stim/right_resp_img.png,"[-0.5, 0]",right,stim/silver_coin.png,gold,,,,,training,,,silver,val,,,,,0.0,0.0,0.0,0.0,1.0,0.0,2.0,0.0,,,,,,,,,0.0,training_resp,,193.1004367338028,44.34496539225802,2.0,,right,silver,0.0,51.0,2.0,right,2021_Nov_16_1616,habits_v_MRI,5.0,40.0,1.0,5.0,30.0,15.0,5.0,15.0,30.0,30.0,60.0,RR,59.99006051408996,
19.0,0.0,resp1,stim/right_resp_img.png,"[-0.5, 0]",right,stim/silver_coin.png,gold,,,,,training,,,silver,val,,,,,0.0,0.0,0.0,0.0,1.0,0.0,2.0,0.0,,,,,,,,,0.0,training_resp,,193.3171177159529,44.56166015705094,2.0,,right,silver,0.0,51.0,2.0,right,2021_Nov_16_1616,habits_v_MRI,5.0,40.0,1.0,5.0,30.0,15.0,5.0,15.0,30.0,30.0,60.0,RR,59.99006051408996,
19.0,0.0,resp1,stim/right_resp_img.png,"[-0.5, 0]",right,stim/silver_coin.png,gold,,,,,training,,,silver,val,,,,,0.0,0.0,0.0,0.0,1.0,0.0,2.0,0.0,,,,,,,,,0.0,training_resp,,195.0509626294952,46.29550037882291,2.0,23.0,right,silver,1.0,51.0,2.0,right,2021_Nov_16_1616,habits_v_MRI,5.0,40.0,1.0,5.0,30.0,15.0,5.0,15.0,30.0,30.0,60.0,RR,59.99006051408996,
19.0,0.0,resp1,stim/right_resp_img.png,"[-0.5, 0]",right,stim/silver_coin.png,gold,,,,,training,,,silver,val,,,,,0.0,0.0,0.0,0.0,1.0,0.0,2.0,0.0,,,,,,,,,0.0,ITI_start,28.333333333333336,200.93730072001927,52.18080623750575,,,,,,51.0,2.0,right,2021_Nov_16_1616,habits_v_MRI,5.0,40.0,1.0,5.0,30.0,15.0,5.0,15.0,30.0,30.0,60.0,RR,59.99006051408996,
19.0,1.0,resp2,stim/left_resp_img.png,"[0.5, 0]",left,stim/gold_coin.png,gold,,,,,training,,,gold,deval,,,,,0.0,0.0,0.0,0.0,1.0,1.0,3.0,1.0,,,,,,,,,0.0,training_period_start,45.0,229.3020632611588,0.0,3.0,17.0,,,,51.0,2.0,right,2021_Nov_16_1616,habits_v_MRI,5.0,40.0,1.0,5.0,30.0,15.0,5.0,15.0,30.0,30.0,60.0,RR,59.99006051408996,
19.0,1.0,resp2,stim/left_resp_img.png,"[0.5, 0]",left,stim/gold_coin.png,gold,,,,,training,,,gold,deval,,,,,0.0,0.0,0.0,0.0,1.0,1.0,3.0,1.0,,,,,,,,,0.0,training_resp,,230.32862973888405,1.0485145980492234,3.0,,left,gold,0.0,51.0,2.0,right,2021_Nov_16_1616,habits_v_MRI,5.0,40.0,1.0,5.0,30.0,15.0,5.0,15.0,30.0,30.0,60.0,RR,59.99006051408996,
19.0,1.0,resp2,stim/left_resp_img.png,"[0.5, 0]",left,stim/gold_coin.png,gold,,,,,training,,,gold,deval,,,,,0.0,0.0,0.0,0.0,1.0,1.0,3.0,1.0,,,,,,,,,0.0,training_resp,,232.7957031596452,3.515987128717825,3.0,,left,gold,0.0,51.0,2.0,right,2021_Nov_16_1616,habits_v_MRI,5.0,40.0,1.0,5.0,30.0,15.0,5.0,15.0,30.0,30.0,60.0,RR,59.99006051408996,
19.0,1.0,resp2,stim/left_resp_img.png,"[0.5, 0]",left,stim/gold_coin.png,gold,,,,,training,,,gold,deval,,,,,0.0,0.0,0.0,0.0,1.0,1.0,3.0,1.0,,,,,,,,,0.0,training_resp,,235.23057417594828,5.950483081396669,3.0,,left,gold,0.0,51.0,2.0,right,2021_Nov_16_1616,habits_v_MRI,5.0,40.0,1.0,5.0,30.0,15.0,5.0,15.0,30.0,30.0,60.0,RR,59.99006051408996,
19.0,1.0,resp2,stim/left_resp_img.png,"[0.5, 0]",left,stim/gold_coin.png,gold,,,,,training,,,gold,deval,,,,,0.0,0.0,0.0,0.0,1.0,1.0,3.0,1.0,,,,,,,,,0.0,training_resp,,237.76391921984032,8.484199376776814,3.0,,left,gold,0.0,51.0,2.0,right,2021_Nov_16_1616,habits_v_MRI,5.0,40.0,1.0,5.0,30.0,15.0,5.0,15.0,30.0,30.0,60.0,RR,59.99006051408996,
19.0,1.0,resp2,stim/left_resp_img.png,"[0.5, 0]",left,stim/gold_coin.png,gold,,,,,training,,,gold,deval,,,,,0.0,0.0,0.0,0.0,1.0,1.0,3.0,1.0,,,,,,,,,0.0,training_resp,,240.14789417409335,10.868146472377704,3.0,,left,gold,0.0,51.0,2.0,right,2021_Nov_16_1616,habits_v_MRI,5.0,40.0,1.0,5.0,30.0,15.0,5.0,15.0,30.0,30.0,60.0,RR,59.99006051408996,
19.0,1.0,resp2,stim/left_resp_img.png,"[0.5, 0]",left,stim/gold_coin.png,gold,,,,,training,,,gold,deval,,,,,0.0,0.0,0.0,0.0,1.0,1.0,3.0,1.0,,,,,,,,,0.0,training_resp,,242.765375780873,13.48564479430206,3.0,,left,gold,0.0,51.0,2.0,right,2021_Nov_16_1616,habits_v_MRI,5.0,40.0,1.0,5.0,30.0,15.0,5.0,15.0,30.0,30.0,60.0,RR,59.99006051408996,
19.0,1.0,resp2,stim/left_resp_img.png,"[0.5, 0]",left,stim/gold_coin.png,gold,,,,,training,,,gold,deval,,,,,0.0,0.0,0.0,0.0,1.0,1.0,3.0,1.0,,,,,,,,,0.0,training_resp,,244.79934998741373,15.519626038847491,3.0,,left,gold,0.0,51.0,2.0,right,2021_Nov_16_1616,habits_v_MRI,5.0,40.0,1.0,5.0,30.0,15.0,5.0,15.0,30.0,30.0,60.0,RR,59.99006051408996,
19.0,1.0,resp2,stim/left_resp_img.png,"[0.5, 0]",left,stim/gold_coin.png,gold,,,,,training,,,gold,deval,,,,,0.0,0.0,0.0,0.0,1.0,1.0,3.0,1.0,,,,,,,,,0.0,training_resp,,246.2664653423708,16.986707670381293,3.0,,left,gold,0.0,51.0,2.0,right,2021_Nov_16_1616,habits_v_MRI,5.0,40.0,1.0,5.0,30.0,15.0,5.0,15.0,30.0,30.0,60.0,RR,59.99006051408996,
19.0,1.0,resp2,stim/left_resp_img.png,"[0.5, 0]",left,stim/gold_coin.png,gold,,,,,training,,,gold,deval,,,,,0.0,0.0,0.0,0.0,1.0,1.0,3.0,1.0,,,,,,,,,0.0,training_resp,,248.53373359679244,19.25400818209164,3.0,,left,gold,0.0,51.0,2.0,right,2021_Nov_16_1616,habits_v_MRI,5.0,40.0,1.0,5.0,30.0,15.0,5.0,15.0,30.0,30.0,60.0,RR,59.99006051408996,
19.0,1.0,resp2,stim/left_resp_img.png,"[0.5, 0]",left,stim/gold_coin.png,gold,,,,,training,,,gold,deval,,,,,0.0,0.0,0.0,0.0,1.0,1.0,3.0,1.0,,,,,,,,,0.0,training_resp,,248.83407402806915,19.55438438965939,3.0,,left,gold,0.0,51.0,2.0,right,2021_Nov_16_1616,habits_v_MRI,5.0,40.0,1.0,5.0,30.0,15.0,5.0,15.0,30.0,30.0,60.0,RR,59.99006051408996,
19.0,1.0,resp2,stim/left_resp_img.png,"[0.5, 0]",left,stim/gold_coin.png,gold,,,,,training,,,gold,deval,,,,,0.0,0.0,0.0,0.0,1.0,1.0,3.0,1.0,,,,,,,,,0.0,training_resp,,253.0358773837797,23.756099477875978,3.0,,left,gold,0.0,51.0,2.0,right,2021_Nov_16_1616,habits_v_MRI,5.0,40.0,1.0,5.0,30.0,15.0,5.0,15.0,30.0,30.0,60.0,RR,59.99006051408996,
19.0,1.0,resp2,stim/left_resp_img.png,"[0.5, 0]",left,stim/gold_coin.png,gold,,,,,training,,,gold,deval,,,,,0.0,0.0,0.0,0.0,1.0,1.0,3.0,1.0,,,,,,,,,0.0,training_resp,,255.21951639372853,25.939790099160746,3.0,,left,gold,0.0,51.0,2.0,right,2021_Nov_16_1616,habits_v_MRI,5.0,40.0,1.0,5.0,30.0,15.0,5.0,15.0,30.0,30.0,60.0,RR,59.99006051408996,
19.0,1.0,resp2,stim/left_resp_img.png,"[0.5, 0]",left,stim/gold_coin.png,gold,,,,,training,,,gold,deval,,,,,0.0,0.0,0.0,0.0,1.0,1.0,3.0,1.0,,,,,,,,,0.0,training_resp,,257.65345517592505,28.37372037721798,3.0,,left,gold,0.0,51.0,2.0,right,2021_Nov_16_1616,habits_v_MRI,5.0,40.0,1.0,5.0,30.0,15.0,5.0,15.0,30.0,30.0,60.0,RR,59.99006051408996,
19.0,1.0,resp2,stim/left_resp_img.png,"[0.5, 0]",left,stim/gold_coin.png,gold,,,,,training,,,gold,deval,,,,,0.0,0.0,0.0,0.0,1.0,1.0,3.0,1.0,,,,,,,,,0.0,training_resp,,260.0873197664041,30.80758584756404,3.0,,left,gold,0.0,51.0,2.0,right,2021_Nov_16_1616,habits_v_MRI,5.0,40.0,1.0,5.0,30.0,15.0,5.0,15.0,30.0,30.0,60.0,RR,59.99006051408996,
19.0,1.0,resp2,stim/left_resp_img.png,"[0.5, 0]",left,stim/gold_coin.png,gold,,,,,training,,,gold,deval,,,,,0.0,0.0,0.0,0.0,1.0,1.0,3.0,1.0,,,,,,,,,0.0,training_resp,,263.52158903866075,34.24185277381912,3.0,,left,gold,0.0,51.0,2.0,right,2021_Nov_16_1616,habits_v_MRI,5.0,40.0,1.0,5.0,30.0,15.0,5.0,15.0,30.0,30.0,60.0,RR,59.99006051408996,
19.0,1.0,resp2,stim/left_resp_img.png,"[0.5, 0]",left,stim/gold_coin.png,gold,,,,,training,,,gold,deval,,,,,0.0,0.0,0.0,0.0,1.0,1.0,3.0,1.0,,,,,,,,,0.0,training_resp,,265.65560761350207,36.375887184171006,3.0,,left,gold,0.0,51.0,2.0,right,2021_Nov_16_1616,habits_v_MRI,5.0,40.0,1.0,5.0,30.0,15.0,5.0,15.0,30.0,30.0,60.0,RR,59.99006051408996,
19.0,1.0,resp2,stim/left_resp_img.png,"[0.5, 0]",left,stim/gold_coin.png,gold,,,,,training,,,gold,deval,,,,,0.0,0.0,0.0,0.0,1.0,1.0,3.0,1.0,,,,,,,,,0.0,training_resp,,268.97407573484816,39.694018070586026,3.0,5.0,left,gold,1.0,51.0,2.0,right,2021_Nov_16_1616,habits_v_MRI,5.0,40.0,1.0,5.0,30.0,15.0,5.0,15.0,30.0,30.0,60.0,RR,59.99006051408996,
19.0,1.0,resp2,stim/left_resp_img.png,"[0.5, 0]",left,stim/gold_coin.png,gold,,,,,training,,,gold,deval,,,,,0.0,0.0,0.0,0.0,1.0,1.0,3.0,1.0,,,,,,,,,0.0,ITI_start,16.666666666666668,273.95893154642545,44.67809501639567,,,,,,51.0,2.0,right,2021_Nov_16_1616,habits_v_MRI,5.0,40.0,1.0,5.0,30.0,15.0,5.0,15.0,30.0,30.0,60.0,RR,59.99006051408996,
19.0,0.0,resp1,stim/right_resp_img.png,"[-0.5, 0]",right,stim/silver_coin.png,gold,,,,,training,,,silver,val,,,,,0.0,0.0,0.0,0.0,2.0,0.0,4.0,0.0,,,,,,,,,0.0,training_period_start,37.5,290.6694732422475,0.0,4.0,21.0,,,,51.0,2.0,right,2021_Nov_16_1616,habits_v_MRI,5.0,40.0,1.0,5.0,30.0,15.0,5.0,15.0,30.0,30.0,60.0,RR,59.99006051408996,
19.0,0.0,resp1,stim/right_resp_img.png,"[-0.5, 0]",right,stim/silver_coin.png,gold,,,,,training,,,silver,val,,,,,0.0,0.0,0.0,0.0,2.0,0.0,4.0,0.0,,,,,,,,,0.0,training_resp,,291.86348119564354,1.2152848299592731,4.0,,right,silver,0.0,51.0,2.0,right,2021_Nov_16_1616,habits_v_MRI,5.0,40.0,1.0,5.0,30.0,15.0,5.0,15.0,30.0,30.0,60.0,RR,59.99006051408996,
19.0,0.0,resp1,stim/right_resp_img.png,"[-0.5, 0]",right,stim/silver_coin.png,gold,,,,,training,,,silver,val,,,,,0.0,0.0,0.0,0.0,2.0,0.0,4.0,0.0,,,,,,,,,0.0,training_resp,,296.36522059421986,5.717016310663894,4.0,,right,silver,0.0,51.0,2.0,right,2021_Nov_16_1616,habits_v_MRI,5.0,40.0,1.0,5.0,30.0,15.0,5.0,15.0,30.0,30.0,60.0,RR,59.99006051408996,
19.0,0.0,resp1,stim/right_resp_img.png,"[-0.5, 0]",right,stim/silver_coin.png,gold,,,,,training,,,silver,val,,,,,0.0,0.0,0.0,0.0,2.0,0.0,4.0,0.0,,,,,,,,,0.0,training_resp,,301.0166189309675,10.368393240263686,4.0,,right,silver,0.0,51.0,2.0,right,2021_Nov_16_1616,habits_v_MRI,5.0,40.0,1.0,5.0,30.0,15.0,5.0,15.0,30.0,30.0,60.0,RR,59.99006051408996,
19.0,0.0,resp1,stim/right_resp_img.png,"[-0.5, 0]",right,stim/silver_coin.png,gold,,,,,training,,,silver,val,,,,,0.0,0.0,0.0,0.0,2.0,0.0,4.0,0.0,,,,,,,,,0.0,training_resp,,303.1345124039799,12.48632630193606,4.0,,right,silver,0.0,51.0,2.0,right,2021_Nov_16_1616,habits_v_MRI,5.0,40.0,1.0,5.0,30.0,15.0,5.0,15.0,30.0,30.0,60.0,RR,59.99006051408996,
19.0,0.0,resp1,stim/right_resp_img.png,"[-0.5, 0]",right,stim/silver_coin.png,gold,,,,,training,,,silver,val,,,,,0.0,0.0,0.0,0.0,2.0,0.0,4.0,0.0,,,,,,,,,0.0,training_resp,,307.30154802510515,16.653349899919704,4.0,,right,silver,0.0,51.0,2.0,right,2021_Nov_16_1616,habits_v_MRI,5.0,40.0,1.0,5.0,30.0,15.0,5.0,15.0,30.0,30.0,60.0,RR,59.99006051408996,
19.0,0.0,resp1,stim/right_resp_img.png,"[-0.5, 0]",right,stim/silver_coin.png,gold,,,,,training,,,silver,val,,,,,0.0,0.0,0.0,0.0,2.0,0.0,4.0,0.0,,,,,,,,,0.0,training_resp,,309.53609863924794,18.887744506122544,4.0,,right,silver,0.0,51.0,2.0,right,2021_Nov_16_1616,habits_v_MRI,5.0,40.0,1.0,5.0,30.0,15.0,5.0,15.0,30.0,30.0,60.0,RR,59.99006051408996,
19.0,0.0,resp1,stim/right_resp_img.png,"[-0.5, 0]",right,stim/silver_coin.png,gold,,,,,training,,,silver,val,,,,,0.0,0.0,0.0,0.0,2.0,0.0,4.0,0.0,,,,,,,,,0.0,training_resp,,312.253104099771,21.6048784093,4.0,,right,silver,0.0,51.0,2.0,right,2021_Nov_16_1616,habits_v_MRI,5.0,40.0,1.0,5.0,30.0,15.0,5.0,15.0,30.0,30.0,60.0,RR,59.99006051408996,
19.0,0.0,resp1,stim/right_resp_img.png,"[-0.5, 0]",right,stim/silver_coin.png,gold,,,,,training,,,silver,val,,,,,0.0,0.0,0.0,0.0,2.0,0.0,4.0,0.0,,,,,,,,,0.0,training_resp,,314.853989062598,24.20563962147571,4.0,,right,silver,0.0,51.0,2.0,right,2021_Nov_16_1616,habits_v_MRI,5.0,40.0,1.0,5.0,30.0,15.0,5.0,15.0,30.0,30.0,60.0,RR,59.99006051408996,
19.0,0.0,resp1,stim/right_resp_img.png,"[-0.5, 0]",right,stim/silver_coin.png,gold,,,,,training,,,silver,val,,,,,0.0,0.0,0.0,0.0,2.0,0.0,4.0,0.0,,,,,,,,,0.0,training_resp,,317.1545001638588,26.506303211441264,4.0,,right,silver,0.0,51.0,2.0,right,2021_Nov_16_1616,habits_v_MRI,5.0,40.0,1.0,5.0,30.0,15.0,5.0,15.0,30.0,30.0,60.0,RR,59.99006051408996,
19.0,0.0,resp1,stim/right_resp_img.png,"[-0.5, 0]",right,stim/silver_coin.png,gold,,,,,training,,,silver,val,,,,,0.0,0.0,0.0,0.0,2.0,0.0,4.0,0.0,,,,,,,,,0.0,training_resp,,319.4718741781544,28.82367869210429,4.0,,right,silver,0.0,51.0,2.0,right,2021_Nov_16_1616,habits_v_MRI,5.0,40.0,1.0,5.0,30.0,15.0,5.0,15.0,30.0,30.0,60.0,RR,59.99006051408996,
19.0,0.0,resp1,stim/right_resp_img.png,"[-0.5, 0]",right,stim/silver_coin.png,gold,,,,,training,,,silver,val,,,,,0.0,0.0,0.0,0.0,2.0,0.0,4.0,0.0,,,,,,,,,0.0,training_resp,,322.5728780527133,31.924684033030644,4.0,,right,silver,0.0,51.0,2.0,right,2021_Nov_16_1616,habits_v_MRI,5.0,40.0,1.0,5.0,30.0,15.0,5.0,15.0,30.0,30.0,60.0,RR,59.99006051408996,
19.0,0.0,resp1,stim/right_resp_img.png,"[-0.5, 0]",right,stim/silver_coin.png,gold,,,,,training,,,silver,val,,,,,0.0,0.0,0.0,0.0,2.0,0.0,4.0,0.0,,,,,,,,,0.0,training_resp,,324.40684181964025,33.75854633608833,4.0,,right,silver,0.0,51.0,2.0,right,2021_Nov_16_1616,habits_v_MRI,5.0,40.0,1.0,5.0,30.0,15.0,5.0,15.0,30.0,30.0,60.0,RR,59.99006051408996,
19.0,0.0,resp1,stim/right_resp_img.png,"[-0.5, 0]",right,stim/silver_coin.png,gold,,,,,training,,,silver,val,,,,,0.0,0.0,0.0,0.0,2.0,0.0,4.0,0.0,,,,,,,,,0.0,training_resp,,327.2409853474237,36.59279308700934,4.0,,right,silver,0.0,51.0,2.0,right,2021_Nov_16_1616,habits_v_MRI,5.0,40.0,1.0,5.0,30.0,15.0,5.0,15.0,30.0,30.0,60.0,RR,59.99006051408996,
19.0,0.0,resp1,stim/right_resp_img.png,"[-0.5, 0]",right,stim/silver_coin.png,gold,,,,,training,,,silver,val,,,,,0.0,0.0,0.0,0.0,2.0,0.0,4.0,0.0,,,,,,,,,0.0,ITI_start,23.333333333333336,327.8257334784139,37.17622893489897,,,,,,51.0,2.0,right,2021_Nov_16_1616,habits_v_MRI,5.0,40.0,1.0,5.0,30.0,15.0,5.0,15.0,30.0,30.0,60.0,RR,59.99006051408996,
19.0,1.0,resp2,stim/left_resp_img.png,"[0.5, 0]",left,stim/gold_coin.png,gold,,,,,training,,,gold,deval,,,,,0.0,0.0,0.0,0.0,2.0,1.0,5.0,1.0,,,,,,,,,0.0,training_period_start,52.5,351.1863371815998,0.0,5.0,8.0,,,,51.0,2.0,right,2021_Nov_16_1616,habits_v_MRI,5.0,40.0,1.0,5.0,30.0,15.0,5.0,15.0,30.0,30.0,60.0,RR,59.99006051408996,
19.0,1.0,resp2,stim/left_resp_img.png,"[0.5, 0]",left,stim/gold_coin.png,gold,,,,,training,,,gold,deval,,,,,0.0,0.0,0.0,0.0,2.0,1.0,5.0,1.0,,,,,,,,,0.0,training_resp,,352.0314000786748,0.8648735354654491,5.0,,left,gold,0.0,51.0,2.0,right,2021_Nov_16_1616,habits_v_MRI,5.0,40.0,1.0,5.0,30.0,15.0,5.0,15.0,30.0,30.0,60.0,RR,59.99006051408996,
19.0,1.0,resp2,stim/left_resp_img.png,"[0.5, 0]",left,stim/gold_coin.png,gold,,,,,training,,,gold,deval,,,,,0.0,0.0,0.0,0.0,2.0,1.0,5.0,1.0,,,,,,,,,0.0,training_resp,,352.8982559682336,1.7317490726709366,5.0,,left,gold,0.0,51.0,2.0,right,2021_Nov_16_1616,habits_v_MRI,5.0,40.0,1.0,5.0,30.0,15.0,5.0,15.0,30.0,30.0,60.0,RR,59.99006051408996,
19.0,1.0,resp2,stim/left_resp_img.png,"[0.5, 0]",left,stim/gold_coin.png,gold,,,,,training,,,gold,deval,,,,,0.0,0.0,0.0,0.0,2.0,1.0,5.0,1.0,,,,,,,,,0.0,training_resp,,356.1995773129165,5.032887430628762,5.0,,left,gold,0.0,51.0,2.0,right,2021_Nov_16_1616,habits_v_MRI,5.0,40.0,1.0,5.0,30.0,15.0,5.0,15.0,30.0,30.0,60.0,RR,59.99006051408996,
19.0,1.0,resp2,stim/left_resp_img.png,"[0.5, 0]",left,stim/gold_coin.png,gold,,,,,training,,,gold,deval,,,,,0.0,0.0,0.0,0.0,2.0,1.0,5.0,1.0,,,,,,,,,0.0,training_resp,,356.7831240084488,5.616466969717294,5.0,,left,gold,0.0,51.0,2.0,right,2021_Nov_16_1616,habits_v_MRI,5.0,40.0,1.0,5.0,30.0,15.0,5.0,15.0,30.0,30.0,60.0,RR,59.99006051408996,
19.0,1.0,resp2,stim/left_resp_img.png,"[0.5, 0]",left,stim/gold_coin.png,gold,,,,,training,,,gold,deval,,,,,0.0,0.0,0.0,0.0,2.0,1.0,5.0,1.0,,,,,,,,,0.0,training_resp,,359.76741326553747,8.600711946608499,5.0,,left,gold,0.0,51.0,2.0,right,2021_Nov_16_1616,habits_v_MRI,5.0,40.0,1.0,5.0,30.0,15.0,5.0,15.0,30.0,30.0,60.0,RR,59.99006051408996,
19.0,1.0,resp2,stim/left_resp_img.png,"[0.5, 0]",left,stim/gold_coin.png,gold,,,,,training,,,gold,deval,,,,,0.0,0.0,0.0,0.0,2.0,1.0,5.0,1.0,,,,,,,,,0.0,training_resp,,360.31759365671314,9.150911985430866,5.0,,left,gold,0.0,51.0,2.0,right,2021_Nov_16_1616,habits_v_MRI,5.0,40.0,1.0,5.0,30.0,15.0,5.0,15.0,30.0,30.0,60.0,RR,59.99006051408996,
19.0,1.0,resp2,stim/left_resp_img.png,"[0.5, 0]",left,stim/gold_coin.png,gold,,,,,training,,,gold,deval,,,,,0.0,0.0,0.0,0.0,2.0,1.0,5.0,1.0,,,,,,,,,0.0,training_resp,,362.5009831127245,11.334597621578723,5.0,,left,gold,0.0,51.0,2.0,right,2021_Nov_16_1616,habits_v_MRI,5.0,40.0,1.0,5.0,30.0,15.0,5.0,15.0,30.0,30.0,60.0,RR,59.99006051408996,
19.0,1.0,resp2,stim/left_resp_img.png,"[0.5, 0]",left,stim/gold_coin.png,gold,,,,,training,,,gold,deval,,,,,0.0,0.0,0.0,0.0,2.0,1.0,5.0,1.0,,,,,,,,,0.0,training_resp,,362.9510200179648,11.784667663741857,5.0,15.0,left,gold,1.0,51.0,2.0,right,2021_Nov_16_1616,habits_v_MRI,5.0,40.0,1.0,5.0,30.0,15.0,5.0,15.0,30.0,30.0,60.0,RR,59.99006051408996,
19.0,1.0,resp2,stim/left_resp_img.png,"[0.5, 0]",left,stim/gold_coin.png,gold,,,,,training,,,gold,deval,,,,,0.0,0.0,0.0,0.0,2.0,1.0,5.0,1.0,,,,,,,,,0.0,training_resp,,367.13629329693504,15.969592857873067,5.0,,left,gold,0.0,51.0,2.0,right,2021_Nov_16_1616,habits_v_MRI,5.0,40.0,1.0,5.0,30.0,15.0,5.0,15.0,30.0,30.0,60.0,RR,59.99006051408996,
19.0,1.0,resp2,stim/left_resp_img.png,"[0.5, 0]",left,stim/gold_coin.png,gold,,,,,training,,,gold,deval,,,,,0.0,0.0,0.0,0.0,2.0,1.0,5.0,1.0,,,,,,,,,0.0,training_resp,,367.8198110489175,16.653142280410975,5.0,,left,gold,0.0,51.0,2.0,right,2021_Nov_16_1616,habits_v_MRI,5.0,40.0,1.0,5.0,30.0,15.0,5.0,15.0,30.0,30.0,60.0,RR,59.99006051408996,
19.0,1.0,resp2,stim/left_resp_img.png,"[0.5, 0]",left,stim/gold_coin.png,gold,,,,,training,,,gold,deval,,,,,0.0,0.0,0.0,0.0,2.0,1.0,5.0,1.0,,,,,,,,,0.0,training_resp,,369.92041170806624,18.75371625414118,5.0,,left,gold,0.0,51.0,2.0,right,2021_Nov_16_1616,habits_v_MRI,5.0,40.0,1.0,5.0,30.0,15.0,5.0,15.0,30.0,30.0,60.0,RR,59.99006051408996,
19.0,1.0,resp2,stim/left_resp_img.png,"[0.5, 0]",left,stim/gold_coin.png,gold,,,,,training,,,gold,deval,,,,,0.0,0.0,0.0,0.0,2.0,1.0,5.0,1.0,,,,,,,,,0.0,training_resp,,370.3211777296383,19.154368202202026,5.0,,left,gold,0.0,51.0,2.0,right,2021_Nov_16_1616,habits_v_MRI,5.0,40.0,1.0,5.0,30.0,15.0,5.0,15.0,30.0,30.0,60.0,RR,59.99006051408996,
19.0,1.0,resp2,stim/left_resp_img.png,"[0.5, 0]",left,stim/gold_coin.png,gold,,,,,training,,,gold,deval,,,,,0.0,0.0,0.0,0.0,2.0,1.0,5.0,1.0,,,,,,,,,0.0,training_resp,,372.871356068179,21.704644778743383,5.0,,left,gold,0.0,51.0,2.0,right,2021_Nov_16_1616,habits_v_MRI,5.0,40.0,1.0,5.0,30.0,15.0,5.0,15.0,30.0,30.0,60.0,RR,59.99006051408996,
19.0,1.0,resp2,stim/left_resp_img.png,"[0.5, 0]",left,stim/gold_coin.png,gold,,,,,training,,,gold,deval,,,,,0.0,0.0,0.0,0.0,2.0,1.0,5.0,1.0,,,,,,,,,0.0,training_resp,,373.2886553921271,22.121721527772024,5.0,,left,gold,0.0,51.0,2.0,right,2021_Nov_16_1616,habits_v_MRI,5.0,40.0,1.0,5.0,30.0,15.0,5.0,15.0,30.0,30.0,60.0,RR,59.99006051408996,
19.0,1.0,resp2,stim/left_resp_img.png,"[0.5, 0]",left,stim/gold_coin.png,gold,,,,,training,,,gold,deval,,,,,0.0,0.0,0.0,0.0,2.0,1.0,5.0,1.0,,,,,,,,,0.0,training_resp,,375.6388426453341,24.47212959663011,5.0,,left,gold,0.0,51.0,2.0,right,2021_Nov_16_1616,habits_v_MRI,5.0,40.0,1.0,5.0,30.0,15.0,5.0,15.0,30.0,30.0,60.0,RR,59.99006051408996,
19.0,1.0,resp2,stim/left_resp_img.png,"[0.5, 0]",left,stim/gold_coin.png,gold,,,,,training,,,gold,deval,,,,,0.0,0.0,0.0,0.0,2.0,1.0,5.0,1.0,,,,,,,,,0.0,training_resp,,376.1556127455551,24.988946616183966,5.0,,left,gold,0.0,51.0,2.0,right,2021_Nov_16_1616,habits_v_MRI,5.0,40.0,1.0,5.0,30.0,15.0,5.0,15.0,30.0,30.0,60.0,RR,59.99006051408996,
19.0,1.0,resp2,stim/left_resp_img.png,"[0.5, 0]",left,stim/gold_coin.png,gold,,,,,training,,,gold,deval,,,,,0.0,0.0,0.0,0.0,2.0,1.0,5.0,1.0,,,,,,,,,0.0,training_resp,,379.4399884813465,28.27328481641598,5.0,,left,gold,0.0,51.0,2.0,right,2021_Nov_16_1616,habits_v_MRI,5.0,40.0,1.0,5.0,30.0,15.0,5.0,15.0,30.0,30.0,60.0,RR,59.99006051408996,
19.0,1.0,resp2,stim/left_resp_img.png,"[0.5, 0]",left,stim/gold_coin.png,gold,,,,,training,,,gold,deval,,,,,0.0,0.0,0.0,0.0,2.0,1.0,5.0,1.0,,,,,,,,,0.0,training_resp,,379.907394151669,28.740544742671773,5.0,,left,gold,0.0,51.0,2.0,right,2021_Nov_16_1616,habits_v_MRI,5.0,40.0,1.0,5.0,30.0,15.0,5.0,15.0,30.0,30.0,60.0,RR,59.99006051408996,
19.0,1.0,resp2,stim/left_resp_img.png,"[0.5, 0]",left,stim/gold_coin.png,gold,,,,,training,,,gold,deval,,,,,0.0,0.0,0.0,0.0,2.0,1.0,5.0,1.0,,,,,,,,,0.0,training_resp,,382.4581152915489,31.29127409355715,5.0,,left,gold,0.0,51.0,2.0,right,2021_Nov_16_1616,habits_v_MRI,5.0,40.0,1.0,5.0,30.0,15.0,5.0,15.0,30.0,30.0,60.0,RR,59.99006051408996,
19.0,1.0,resp2,stim/left_resp_img.png,"[0.5, 0]",left,stim/gold_coin.png,gold,,,,,training,,,gold,deval,,,,,0.0,0.0,0.0,0.0,2.0,1.0,5.0,1.0,,,,,,,,,0.0,training_resp,,382.8747955698054,31.70797225995921,5.0,,left,gold,0.0,51.0,2.0,right,2021_Nov_16_1616,habits_v_MRI,5.0,40.0,1.0,5.0,30.0,15.0,5.0,15.0,30.0,30.0,60.0,RR,59.99006051408996,
19.0,1.0,resp2,stim/left_resp_img.png,"[0.5, 0]",left,stim/gold_coin.png,gold,,,,,training,,,gold,deval,,,,,0.0,0.0,0.0,0.0,2.0,1.0,5.0,1.0,,,,,,,,,0.0,training_resp,,384.9750188193284,33.80831486103125,5.0,,left,gold,0.0,51.0,2.0,right,2021_Nov_16_1616,habits_v_MRI,5.0,40.0,1.0,5.0,30.0,15.0,5.0,15.0,30.0,30.0,60.0,RR,59.99006051408996,
19.0,1.0,resp2,stim/left_resp_img.png,"[0.5, 0]",left,stim/gold_coin.png,gold,,,,,training,,,gold,deval,,,,,0.0,0.0,0.0,0.0,2.0,1.0,5.0,1.0,,,,,,,,,0.0,training_resp,,388.0258160568774,36.85935285524465,5.0,,left,gold,0.0,51.0,2.0,right,2021_Nov_16_1616,habits_v_MRI,5.0,40.0,1.0,5.0,30.0,15.0,5.0,15.0,30.0,30.0,60.0,RR,59.99006051408996,
19.0,1.0,resp2,stim/left_resp_img.png,"[0.5, 0]",left,stim/gold_coin.png,gold,,,,,training,,,gold,deval,,,,,0.0,0.0,0.0,0.0,2.0,1.0,5.0,1.0,,,,,,,,,0.0,training_resp,,390.14367815246806,38.97687097126618,5.0,6.0,left,gold,1.0,51.0,2.0,right,2021_Nov_16_1616,habits_v_MRI,5.0,40.0,1.0,5.0,30.0,15.0,5.0,15.0,30.0,30.0,60.0,RR,59.99006051408996,
19.0,1.0,resp2,stim/left_resp_img.png,"[0.5, 0]",left,stim/gold_coin.png,gold,,,,,training,,,gold,deval,,,,,0.0,0.0,0.0,0.0,2.0,1.0,5.0,1.0,,,,,,,,,0.0,training_resp,,392.96108545036986,41.79433691850864,5.0,,left,gold,0.0,51.0,2.0,right,2021_Nov_16_1616,habits_v_MRI,5.0,40.0,1.0,5.0,30.0,15.0,5.0,15.0,30.0,30.0,60.0,RR,59.99006051408996,
19.0,1.0,resp2,stim/left_resp_img.png,"[0.5, 0]",left,stim/gold_coin.png,gold,,,,,training,,,gold,deval,,,,,0.0,0.0,0.0,0.0,2.0,1.0,5.0,1.0,,,,,,,,,0.0,training_resp,,395.0616764323786,43.894964556442574,5.0,,left,gold,0.0,51.0,2.0,right,2021_Nov_16_1616,habits_v_MRI,5.0,40.0,1.0,5.0,30.0,15.0,5.0,15.0,30.0,30.0,60.0,RR,59.99006051408996,
19.0,1.0,resp2,stim/left_resp_img.png,"[0.5, 0]",left,stim/gold_coin.png,gold,,,,,training,,,gold,deval,,,,,0.0,0.0,0.0,0.0,2.0,1.0,5.0,1.0,,,,,,,,,0.0,training_resp,,396.978947751224,45.81223880778998,5.0,,left,gold,0.0,51.0,2.0,right,2021_Nov_16_1616,habits_v_MRI,5.0,40.0,1.0,5.0,30.0,15.0,5.0,15.0,30.0,30.0,60.0,RR,59.99006051408996,
19.0,1.0,resp2,stim/left_resp_img.png,"[0.5, 0]",left,stim/gold_coin.png,gold,,,,,training,,,gold,deval,,,,,0.0,0.0,0.0,0.0,2.0,1.0,5.0,1.0,,,,,,,,,0.0,training_resp,,397.3622458900791,46.19556539156474,5.0,,left,gold,0.0,51.0,2.0,right,2021_Nov_16_1616,habits_v_MRI,5.0,40.0,1.0,5.0,30.0,15.0,5.0,15.0,30.0,30.0,60.0,RR,59.99006051408996,
19.0,1.0,resp2,stim/left_resp_img.png,"[0.5, 0]",left,stim/gold_coin.png,gold,,,,,training,,,gold,deval,,,,,0.0,0.0,0.0,0.0,2.0,1.0,5.0,1.0,,,,,,,,,0.0,training_resp,,399.7628468130715,48.59613552363589,5.0,,left,gold,0.0,51.0,2.0,right,2021_Nov_16_1616,habits_v_MRI,5.0,40.0,1.0,5.0,30.0,15.0,5.0,15.0,30.0,30.0,60.0,RR,59.99006051408996,
19.0,1.0,resp2,stim/left_resp_img.png,"[0.5, 0]",left,stim/gold_coin.png,gold,,,,,training,,,gold,deval,,,,,0.0,0.0,0.0,0.0,2.0,1.0,5.0,1.0,,,,,,,,,0.0,training_resp,,400.2128675896674,49.04619354289025,5.0,9.0,left,gold,1.0,51.0,2.0,right,2021_Nov_16_1616,habits_v_MRI,5.0,40.0,1.0,5.0,30.0,15.0,5.0,15.0,30.0,30.0,60.0,RR,59.99006051408996,
19.0,1.0,resp2,stim/left_resp_img.png,"[0.5, 0]",left,stim/gold_coin.png,gold,,,,,training,,,gold,deval,,,,,0.0,0.0,0.0,0.0,2.0,1.0,5.0,1.0,,,,,,,,,0.0,training_resp,,403.3138697049581,52.14716222765856,5.0,,left,gold,0.0,51.0,2.0,right,2021_Nov_16_1616,habits_v_MRI,5.0,40.0,1.0,5.0,30.0,15.0,5.0,15.0,30.0,30.0,60.0,RR,59.99006051408996,
19.0,1.0,resp2,stim/left_resp_img.png,"[0.5, 0]",left,stim/gold_coin.png,gold,,,,,training,,,gold,deval,,,,,0.0,0.0,0.0,0.0,2.0,1.0,5.0,1.0,,,,,,,,,0.0,ITI_start,30.0,403.4150260682218,52.24720278382301,,,,,,51.0,2.0,right,2021_Nov_16_1616,habits_v_MRI,5.0,40.0,1.0,5.0,30.0,15.0,5.0,15.0,30.0,30.0,60.0,RR,59.99006051408996,
19.0,0.0,resp1,stim/right_resp_img.png,"[-0.5, 0]",right,stim/silver_coin.png,gold,,,,,training,,,silver,val,,,,,0.0,0.0,0.0,0.0,3.0,0.0,6.0,0.0,,,,,,,,,0.0,training_period_start,30.0,433.4388515602332,0.0,6.0,23.0,,,,51.0,2.0,right,2021_Nov_16_1616,habits_v_MRI,5.0,40.0,1.0,5.0,30.0,15.0,5.0,15.0,30.0,30.0,60.0,RR,59.99006051408996,
19.0,0.0,resp1,stim/right_resp_img.png,"[-0.5, 0]",right,stim/silver_coin.png,gold,,,,,training,,,silver,val,,,,,0.0,0.0,0.0,0.0,3.0,0.0,6.0,0.0,,,,,,,,,0.0,training_resp,,434.3401549579576,0.916032054228708,6.0,,right,silver,0.0,51.0,2.0,right,2021_Nov_16_1616,habits_v_MRI,5.0,40.0,1.0,5.0,30.0,15.0,5.0,15.0,30.0,30.0,60.0,RR,59.99006051408996,
19.0,0.0,resp1,stim/right_resp_img.png,"[-0.5, 0]",right,stim/silver_coin.png,gold,,,,,training,,,silver,val,,,,,0.0,0.0,0.0,0.0,3.0,0.0,6.0,0.0,,,,,,,,,0.0,training_resp,,437.1578719252721,3.733747848542407,6.0,,right,silver,0.0,51.0,2.0,right,2021_Nov_16_1616,habits_v_MRI,5.0,40.0,1.0,5.0,30.0,15.0,5.0,15.0,30.0,30.0,60.0,RR,59.99006051408996,
19.0,0.0,resp1,stim/right_resp_img.png,"[-0.5, 0]",right,stim/silver_coin.png,gold,,,,,training,,,silver,val,,,,,0.0,0.0,0.0,0.0,3.0,0.0,6.0,0.0,,,,,,,,,0.0,training_resp,,440.5753744700924,7.151253325631842,6.0,,right,silver,0.0,51.0,2.0,right,2021_Nov_16_1616,habits_v_MRI,5.0,40.0,1.0,5.0,30.0,15.0,5.0,15.0,30.0,30.0,60.0,RR,59.99006051408996,
19.0,0.0,resp1,stim/right_resp_img.png,"[-0.5, 0]",right,stim/silver_coin.png,gold,,,,,training,,,silver,val,,,,,0.0,0.0,0.0,0.0,3.0,0.0,6.0,0.0,,,,,,,,,0.0,training_resp,,443.1432485447731,9.71911684353836,6.0,,right,silver,0.0,51.0,2.0,right,2021_Nov_16_1616,habits_v_MRI,5.0,40.0,1.0,5.0,30.0,15.0,5.0,15.0,30.0,30.0,60.0,RR,59.99006051408996,
19.0,0.0,resp1,stim/right_resp_img.png,"[-0.5, 0]",right,stim/silver_coin.png,gold,,,,,training,,,silver,val,,,,,0.0,0.0,0.0,0.0,3.0,0.0,6.0,0.0,,,,,,,,,0.0,training_resp,,446.2935840054415,12.86943998769857,6.0,,right,silver,0.0,51.0,2.0,right,2021_Nov_16_1616,habits_v_MRI,5.0,40.0,1.0,5.0,30.0,15.0,5.0,15.0,30.0,30.0,60.0,RR,59.99006051408996,
19.0,0.0,resp1,stim/right_resp_img.png,"[-0.5, 0]",right,stim/silver_coin.png,gold,,,,,training,,,silver,val,,,,,0.0,0.0,0.0,0.0,3.0,0.0,6.0,0.0,,,,,,,,,0.0,training_resp,,448.4943768298253,15.070092933019623,6.0,,right,silver,0.0,51.0,2.0,right,2021_Nov_16_1616,habits_v_MRI,5.0,40.0,1.0,5.0,30.0,15.0,5.0,15.0,30.0,30.0,60.0,RR,59.99006051408996,
19.0,0.0,resp1,stim/right_resp_img.png,"[-0.5, 0]",right,stim/silver_coin.png,gold,,,,,training,,,silver,val,,,,,0.0,0.0,0.0,0.0,3.0,0.0,6.0,0.0,,,,,,,,,0.0,training_resp,,450.4616729719564,17.037481448380277,6.0,,right,silver,0.0,51.0,2.0,right,2021_Nov_16_1616,habits_v_MRI,5.0,40.0,1.0,5.0,30.0,15.0,5.0,15.0,30.0,30.0,60.0,RR,59.99006051408996,
19.0,0.0,resp1,stim/right_resp_img.png,"[-0.5, 0]",right,stim/silver_coin.png,gold,,,,,training,,,silver,val,,,,,0.0,0.0,0.0,0.0,3.0,0.0,6.0,0.0,,,,,,,,,0.0,training_resp,,453.59519038675353,20.171173931797966,6.0,,right,silver,0.0,51.0,2.0,right,2021_Nov_16_1616,habits_v_MRI,5.0,40.0,1.0,5.0,30.0,15.0,5.0,15.0,30.0,30.0,60.0,RR,59.99006051408996,
19.0,0.0,resp1,stim/right_resp_img.png,"[-0.5, 0]",right,stim/silver_coin.png,gold,,,,,training,,,silver,val,,,,,0.0,0.0,0.0,0.0,3.0,0.0,6.0,0.0,,,,,,,,,0.0,training_resp,,456.7293828574475,23.30556610412896,6.0,,right,silver,0.0,51.0,2.0,right,2021_Nov_16_1616,habits_v_MRI,5.0,40.0,1.0,5.0,30.0,15.0,5.0,15.0,30.0,30.0,60.0,RR,59.99006051408996,
19.0,0.0,resp1,stim/right_resp_img.png,"[-0.5, 0]",right,stim/silver_coin.png,gold,,,,,training,,,silver,val,,,,,0.0,0.0,0.0,0.0,3.0,0.0,6.0,0.0,,,,,,,,,0.0,training_resp,,458.6973285432905,25.273200947558507,6.0,,right,silver,0.0,51.0,2.0,right,2021_Nov_16_1616,habits_v_MRI,5.0,40.0,1.0,5.0,30.0,15.0,5.0,15.0,30.0,30.0,60.0,RR,59.99006051408996,
19.0,0.0,resp1,stim/right_resp_img.png,"[-0.5, 0]",right,stim/silver_coin.png,gold,,,,,training,,,silver,val,,,,,0.0,0.0,0.0,0.0,3.0,0.0,6.0,0.0,,,,,,,,,0.0,training_resp,,459.1978069767356,25.77332513802685,6.0,,right,silver,0.0,51.0,2.0,right,2021_Nov_16_1616,habits_v_MRI,5.0,40.0,1.0,5.0,30.0,15.0,5.0,15.0,30.0,30.0,60.0,RR,59.99006051408996,
19.0,0.0,resp1,stim/right_resp_img.png,"[-0.5, 0]",right,stim/silver_coin.png,gold,,,,,training,,,silver,val,,,,,0.0,0.0,0.0,0.0,3.0,0.0,6.0,0.0,,,,,,,,,0.0,training_resp,,461.4320405903272,28.007777514168996,6.0,,right,silver,0.0,51.0,2.0,right,2021_Nov_16_1616,habits_v_MRI,5.0,40.0,1.0,5.0,30.0,15.0,5.0,15.0,30.0,30.0,60.0,RR,59.99006051408996,
19.0,0.0,resp1,stim/right_resp_img.png,"[-0.5, 0]",right,stim/silver_coin.png,gold,,,,,training,,,silver,val,,,,,0.0,0.0,0.0,0.0,3.0,0.0,6.0,0.0,,,,,,,,,0.0,training_resp,,461.8648272024002,28.44079725816846,6.0,,right,silver,0.0,51.0,2.0,right,2021_Nov_16_1616,habits_v_MRI,5.0,40.0,1.0,5.0,30.0,15.0,5.0,15.0,30.0,30.0,60.0,RR,59.99006051408996,
19.0,0.0,resp1,stim/right_resp_img.png,"[-0.5, 0]",right,stim/silver_coin.png,gold,,,,,training,,,silver,val,,,,,0.0,0.0,0.0,0.0,3.0,0.0,6.0,0.0,,,,,,,,,0.0,ITI_start,26.666666666666668,463.0998927594628,29.674515342107043,,,,,,51.0,2.0,right,2021_Nov_16_1616,habits_v_MRI,5.0,40.0,1.0,5.0,30.0,15.0,5.0,15.0,30.0,30.0,60.0,RR,59.99006051408996,
19.0,1.0,resp2,stim/left_resp_img.png,"[0.5, 0]",left,stim/gold_coin.png,gold,,,,,training,,,gold,deval,,,,,0.0,0.0,0.0,0.0,3.0,1.0,7.0,1.0,,,,,,,,,0.0,training_period_start,30.0,489.8155143843032,0.0,7.0,17.0,,,,51.0,2.0,right,2021_Nov_16_1616,habits_v_MRI,5.0,40.0,1.0,5.0,30.0,15.0,5.0,15.0,30.0,30.0,60.0,RR,59.99006051408996,
19.0,1.0,resp2,stim/left_resp_img.png,"[0.5, 0]",left,stim/gold_coin.png,gold,,,,,training,,,gold,deval,,,,,0.0,0.0,0.0,0.0,3.0,1.0,7.0,1.0,,,,,,,,,0.0,training_resp,,490.8417843885254,1.049242438748479,7.0,,left,gold,0.0,51.0,2.0,right,2021_Nov_16_1616,habits_v_MRI,5.0,40.0,1.0,5.0,30.0,15.0,5.0,15.0,30.0,30.0,60.0,RR,59.99006051408996,
19.0,1.0,resp2,stim/left_resp_img.png,"[0.5, 0]",left,stim/gold_coin.png,gold,,,,,training,,,gold,deval,,,,,0.0,0.0,0.0,0.0,3.0,1.0,7.0,1.0,,,,,,,,,0.0,training_resp,,493.09102348424494,3.2987410586792976,7.0,,left,gold,0.0,51.0,2.0,right,2021_Nov_16_1616,habits_v_MRI,5.0,40.0,1.0,5.0,30.0,15.0,5.0,15.0,30.0,30.0,60.0,RR,59.99006051408996,
19.0,1.0,resp2,stim/left_resp_img.png,"[0.5, 0]",left,stim/gold_coin.png,gold,,,,,training,,,gold,deval,,,,,0.0,0.0,0.0,0.0,3.0,1.0,7.0,1.0,,,,,,,,,0.0,training_resp,,494.0745957507752,4.282326228218153,7.0,,left,gold,0.0,51.0,2.0,right,2021_Nov_16_1616,habits_v_MRI,5.0,40.0,1.0,5.0,30.0,15.0,5.0,15.0,30.0,30.0,60.0,RR,59.99006051408996,
19.0,1.0,resp2,stim/left_resp_img.png,"[0.5, 0]",left,stim/gold_coin.png,gold,,,,,training,,,gold,deval,,,,,0.0,0.0,0.0,0.0,3.0,1.0,7.0,1.0,,,,,,,,,0.0,training_resp,,497.27604867564514,7.483365673804656,7.0,,left,gold,0.0,51.0,2.0,right,2021_Nov_16_1616,habits_v_MRI,5.0,40.0,1.0,5.0,30.0,15.0,5.0,15.0,30.0,30.0,60.0,RR,59.99006051408996,
19.0,1.0,resp2,stim/left_resp_img.png,"[0.5, 0]",left,stim/gold_coin.png,gold,,,,,training,,,gold,deval,,,,,0.0,0.0,0.0,0.0,3.0,1.0,7.0,1.0,,,,,,,,,0.0,training_resp,,497.64234402240254,7.850106463767588,7.0,,left,gold,0.0,51.0,2.0,right,2021_Nov_16_1616,habits_v_MRI,5.0,40.0,1.0,5.0,30.0,15.0,5.0,15.0,30.0,30.0,60.0,RR,59.99006051408996,
19.0,1.0,resp2,stim/left_resp_img.png,"[0.5, 0]",left,stim/gold_coin.png,gold,,,,,training,,,gold,deval,,,,,0.0,0.0,0.0,0.0,3.0,1.0,7.0,1.0,,,,,,,,,0.0,training_resp,,500.5266405227594,10.734354578191414,7.0,,left,gold,0.0,51.0,2.0,right,2021_Nov_16_1616,habits_v_MRI,5.0,40.0,1.0,5.0,30.0,15.0,5.0,15.0,30.0,30.0,60.0,RR,59.99006051408996,
19.0,1.0,resp2,stim/left_resp_img.png,"[0.5, 0]",left,stim/gold_coin.png,gold,,,,,training,,,gold,deval,,,,,0.0,0.0,0.0,0.0,3.0,1.0,7.0,1.0,,,,,,,,,0.0,training_resp,,500.9100503888913,11.117804032750428,7.0,,left,gold,0.0,51.0,2.0,right,2021_Nov_16_1616,habits_v_MRI,5.0,40.0,1.0,5.0,30.0,15.0,5.0,15.0,30.0,30.0,60.0,RR,59.99006051408996,
19.0,1.0,resp2,stim/left_resp_img.png,"[0.5, 0]",left,stim/gold_coin.png,gold,,,,,training,,,gold,deval,,,,,0.0,0.0,0.0,0.0,3.0,1.0,7.0,1.0,,,,,,,,,0.0,training_resp,,504.27770493831486,14.48541870061308,7.0,,left,gold,0.0,51.0,2.0,right,2021_Nov_16_1616,habits_v_MRI,5.0,40.0,1.0,5.0,30.0,15.0,5.0,15.0,30.0,30.0,60.0,RR,59.99006051408996,
19.0,1.0,resp2,stim/left_resp_img.png,"[0.5, 0]",left,stim/gold_coin.png,gold,,,,,training,,,gold,deval,,,,,0.0,0.0,0.0,0.0,3.0,1.0,7.0,1.0,,,,,,,,,0.0,training_resp,,504.6944629272912,14.902216277783737,7.0,,left,gold,0.0,51.0,2.0,right,2021_Nov_16_1616,habits_v_MRI,5.0,40.0,1.0,5.0,30.0,15.0,5.0,15.0,30.0,30.0,60.0,RR,59.99006051408996,
19.0,1.0,resp2,stim/left_resp_img.png,"[0.5, 0]",left,stim/gold_coin.png,gold,,,,,training,,,gold,deval,,,,,0.0,0.0,0.0,0.0,3.0,1.0,7.0,1.0,,,,,,,,,0.0,training_resp,,507.8121382240206,18.019841429311786,7.0,,left,gold,0.0,51.0,2.0,right,2021_Nov_16_1616,habits_v_MRI,5.0,40.0,1.0,5.0,30.0,15.0,5.0,15.0,30.0,30.0,60.0,RR,59.99006051408996,
19.0,1.0,resp2,stim/left_resp_img.png,"[0.5, 0]",left,stim/gold_coin.png,gold,,,,,training,,,gold,deval,,,,,0.0,0.0,0.0,0.0,3.0,1.0,7.0,1.0,,,,,,,,,0.0,training_resp,,508.2123221489601,18.420072273816917,7.0,,left,gold,0.0,51.0,2.0,right,2021_Nov_16_1616,habits_v_MRI,5.0,40.0,1.0,5.0,30.0,15.0,5.0,15.0,30.0,30.0,60.0,RR,59.99006051408996,
19.0,1.0,resp2,stim/left_resp_img.png,"[0.5, 0]",left,stim/gold_coin.png,gold,,,,,training,,,gold,deval,,,,,0.0,0.0,0.0,0.0,3.0,1.0,7.0,1.0,,,,,,,,,0.0,training_resp,,510.6296595952008,20.83736045449041,7.0,,left,gold,0.0,51.0,2.0,right,2021_Nov_16_1616,habits_v_MRI,5.0,40.0,1.0,5.0,30.0,15.0,5.0,15.0,30.0,30.0,60.0,RR,59.99006051408996,
19.0,1.0,resp2,stim/left_resp_img.png,"[0.5, 0]",left,stim/gold_coin.png,gold,,,,,training,,,gold,deval,,,,,0.0,0.0,0.0,0.0,3.0,1.0,7.0,1.0,,,,,,,,,0.0,training_resp,,510.99644906423055,21.20420094858855,7.0,,left,gold,0.0,51.0,2.0,right,2021_Nov_16_1616,habits_v_MRI,5.0,40.0,1.0,5.0,30.0,15.0,5.0,15.0,30.0,30.0,60.0,RR,59.99006051408996,
19.0,1.0,resp2,stim/left_resp_img.png,"[0.5, 0]",left,stim/gold_coin.png,gold,,,,,training,,,gold,deval,,,,,0.0,0.0,0.0,0.0,3.0,1.0,7.0,1.0,,,,,,,,,0.0,training_resp,,514.0139905521646,24.221702261595052,7.0,,left,gold,0.0,51.0,2.0,right,2021_Nov_16_1616,habits_v_MRI,5.0,40.0,1.0,5.0,30.0,15.0,5.0,15.0,30.0,30.0,60.0,RR,59.99006051408996,
19.0,1.0,resp2,stim/left_resp_img.png,"[0.5, 0]",left,stim/gold_coin.png,gold,,,,,training,,,gold,deval,,,,,0.0,0.0,0.0,0.0,3.0,1.0,7.0,1.0,,,,,,,,,0.0,training_resp,,516.6481652813964,26.855855877045546,7.0,,left,gold,0.0,51.0,2.0,right,2021_Nov_16_1616,habits_v_MRI,5.0,40.0,1.0,5.0,30.0,15.0,5.0,15.0,30.0,30.0,60.0,RR,59.99006051408996,
19.0,1.0,resp2,stim/left_resp_img.png,"[0.5, 0]",left,stim/gold_coin.png,gold,,,,,training,,,gold,deval,,,,,0.0,0.0,0.0,0.0,3.0,1.0,7.0,1.0,,,,,,,,,0.0,training_resp,,519.2822910384275,29.49000128149055,7.0,,left,gold,0.0,51.0,2.0,right,2021_Nov_16_1616,habits_v_MRI,5.0,40.0,1.0,5.0,30.0,15.0,5.0,15.0,30.0,30.0,60.0,RR,59.99006051408996,
19.0,1.0,resp2,stim/left_resp_img.png,"[0.5, 0]",left,stim/gold_coin.png,gold,,,,,training,,,gold,deval,,,,,0.0,0.0,0.0,0.0,3.0,1.0,7.0,1.0,,,,,,,,,0.0,ITI_start,21.666666666666668,519.4670476149768,29.673342644935477,,,,,,51.0,2.0,right,2021_Nov_16_1616,habits_v_MRI,5.0,40.0,1.0,5.0,30.0,15.0,5.0,15.0,30.0,30.0,60.0,RR,59.99006051408996,
19.0,0.0,resp1,stim/right_resp_img.png,"[-0.5, 0]",right,stim/silver_coin.png,gold,,,,,training,,,silver,val,,,,,0.0,0.0,0.0,0.0,4.0,0.0,8.0,0.0,,,,,,,,,0.0,training_period_start,60.0,541.1805085912347,0.0,8.0,11.0,,,,51.0,2.0,right,2021_Nov_16_1616,habits_v_MRI,5.0,40.0,1.0,5.0,30.0,15.0,5.0,15.0,30.0,30.0,60.0,RR,59.99006051408996,
19.0,0.0,resp1,stim/right_resp_img.png,"[-0.5, 0]",right,stim/silver_coin.png,gold,,,,,training,,,silver,val,,,,,0.0,0.0,0.0,0.0,4.0,0.0,8.0,0.0,,,,,,,,,0.0,training_resp,,542.0892255827785,0.9319457244127988,8.0,,right,silver,0.0,51.0,2.0,right,2021_Nov_16_1616,habits_v_MRI,5.0,40.0,1.0,5.0,30.0,15.0,5.0,15.0,30.0,30.0,60.0,RR,59.99006051408996,
19.0,0.0,resp1,stim/right_resp_img.png,"[-0.5, 0]",right,stim/silver_coin.png,gold,,,,,training,,,silver,val,,,,,0.0,0.0,0.0,0.0,4.0,0.0,8.0,0.0,,,,,,,,,0.0,training_resp,,542.6225310382433,1.4652837303001434,8.0,,right,silver,0.0,51.0,2.0,right,2021_Nov_16_1616,habits_v_MRI,5.0,40.0,1.0,5.0,30.0,15.0,5.0,15.0,30.0,30.0,60.0,RR,59.99006051408996,
