list,trial_num_python,condition,stimulus,position,corrResp,coin_img,devalued_coin,stimulus_choice1,stimulus_choice2,position1,position2,phase,corrResp1,corrResp2,outcome,cond_val,outcome_choice1,outcome_choice2,cond_val1,cond_val2,blockLoop.thisRepN,blockLoop.thisTrialN,blockLoop.thisN,blockLoop.thisIndex,trialLoop.thisRepN,trialLoop.thisTrialN,trialLoop.thisN,trialLoop.thisIndex,choice_trialLoop.thisRepN,choice_trialLoop.thisTrialN,choice_trialLoop.thisN,choice_trialLoop.thisIndex,contingency_trialLoop.thisRepN,contingency_trialLoop.thisTrialN,contingency_trialLoop.thisN,contingency_trialLoop.thisIndex,run,event,duration,globalClock_t,routineClock_t,trial,nResp_untilRnf,resp,selected_coin,wasRnf,participant,task_ordering,hand,date,expName,n_repeat_training,credits_per_rnf,cost_response,min_resp_bet_rnf,max_resp_bet_rnf,mean_resp_bet_rnf,sigma_resp_bet_rnf,min_ITI,max_ITI,min_trial_duration,max_trial_duration,schedule,frameRate,Unnamed: 65
18.0,0.0,resp1,stim/left_resp_img.png,"[0.5, 0]",left,stim/silver_coin.png,silver,,,,,training,,,silver,deval,,,,,0.0,0.0,0.0,0.0,0.0,0.0,0.0,0.0,,,,,,,,,0.0,instr_before_block,6.0,0.0043230568990111,,,,,,,50.0,2.0,right,2021_Nov_15_1622,habits_v_MRI,5.0,40.0,1.0,5.0,30.0,15.0,5.0,15.0,30.0,30.0,60.0,RR,59.97877050963142,
18.0,0.0,resp1,stim/left_resp_img.png,"[0.5, 0]",left,stim/silver_coin.png,silver,,,,,training,,,silver,deval,,,,,0.0,0.0,0.0,0.0,0.0,0.0,0.0,0.0,,,,,,,,,0.0,training_period_start,45.0,6.046729599591345,0.0,0.0,22.0,,,,50.0,2.0,right,2021_Nov_15_1622,habits_v_MRI,5.0,40.0,1.0,5.0,30.0,15.0,5.0,15.0,30.0,30.0,60.0,RR,59.97877050963142,
18.0,0.0,resp1,stim/left_resp_img.png,"[0.5, 0]",left,stim/silver_coin.png,silver,,,,,training,,,silver,deval,,,,,0.0,0.0,0.0,0.0,0.0,0.0,0.0,0.0,,,,,,,,,0.0,training_resp,,6.693081144476309,0.6657531023956835,0.0,,left,silver,0.0,50.0,2.0,right,2021_Nov_15_1622,habits_v_MRI,5.0,40.0,1.0,5.0,30.0,15.0,5.0,15.0,30.0,30.0,60.0,RR,59.97877050963142,
18.0,0.0,resp1,stim/left_resp_img.png,"[0.5, 0]",left,stim/silver_coin.png,silver,,,,,training,,,silver,deval,,,,,0.0,0.0,0.0,0.0,0.0,0.0,0.0,0.0,,,,,,,,,0.0,training_resp,,7.176288170972839,1.1492284508422017,0.0,,left,silver,0.0,50.0,2.0,right,2021_Nov_15_1622,habits_v_MRI,5.0,40.0,1.0,5.0,30.0,15.0,5.0,15.0,30.0,30.0,60.0,RR,59.97877050963142,
18.0,0.0,resp1,stim/left_resp_img.png,"[0.5, 0]",left,stim/silver_coin.png,silver,,,,,training,,,silver,deval,,,,,0.0,0.0,0.0,0.0,0.0,0.0,0.0,0.0,,,,,,,,,0.0,training_resp,,7.626207777298987,1.5992647693492472,0.0,,left,silver,0.0,50.0,2.0,right,2021_Nov_15_1622,habits_v_MRI,5.0,40.0,1.0,5.0,30.0,15.0,5.0,15.0,30.0,30.0,60.0,RR,59.97877050963142,
18.0,0.0,resp1,stim/left_resp_img.png,"[0.5, 0]",left,stim/silver_coin.png,silver,,,,,training,,,silver,deval,,,,,0.0,0.0,0.0,0.0,0.0,0.0,0.0,0.0,,,,,,,,,0.0,training_resp,,8.05962545843795,2.032696819631383,0.0,,left,silver,0.0,50.0,2.0,right,2021_Nov_15_1622,habits_v_MRI,5.0,40.0,1.0,5.0,30.0,15.0,5.0,15.0,30.0,30.0,60.0,RR,59.97877050963142,
18.0,0.0,resp1,stim/left_resp_img.png,"[0.5, 0]",left,stim/silver_coin.png,silver,,,,,training,,,silver,deval,,,,,0.0,0.0,0.0,0.0,0.0,0.0,0.0,0.0,,,,,,,,,0.0,training_resp,,8.526384517550468,2.4994819778949022,0.0,,left,silver,0.0,50.0,2.0,right,2021_Nov_15_1622,habits_v_MRI,5.0,40.0,1.0,5.0,30.0,15.0,5.0,15.0,30.0,30.0,60.0,RR,59.97877050963142,
18.0,0.0,resp1,stim/left_resp_img.png,"[0.5, 0]",left,stim/silver_coin.png,silver,,,,,training,,,silver,deval,,,,,0.0,0.0,0.0,0.0,0.0,0.0,0.0,0.0,,,,,,,,,0.0,training_resp,,8.809759106021374,2.7828275349456817,0.0,,left,silver,0.0,50.0,2.0,right,2021_Nov_15_1622,habits_v_MRI,5.0,40.0,1.0,5.0,30.0,15.0,5.0,15.0,30.0,30.0,60.0,RR,59.97877050963142,
18.0,0.0,resp1,stim/left_resp_img.png,"[0.5, 0]",left,stim/silver_coin.png,silver,,,,,training,,,silver,deval,,,,,0.0,0.0,0.0,0.0,0.0,0.0,0.0,0.0,,,,,,,,,0.0,training_resp,,9.076687193242831,3.0496764450799674,0.0,,left,silver,0.0,50.0,2.0,right,2021_Nov_15_1622,habits_v_MRI,5.0,40.0,1.0,5.0,30.0,15.0,5.0,15.0,30.0,30.0,60.0,RR,59.97877050963142,
18.0,0.0,resp1,stim/left_resp_img.png,"[0.5, 0]",left,stim/silver_coin.png,silver,,,,,training,,,silver,deval,,,,,0.0,0.0,0.0,0.0,0.0,0.0,0.0,0.0,,,,,,,,,0.0,training_resp,,9.376716781873256,3.349816294852644,0.0,,left,silver,0.0,50.0,2.0,right,2021_Nov_15_1622,habits_v_MRI,5.0,40.0,1.0,5.0,30.0,15.0,5.0,15.0,30.0,30.0,60.0,RR,59.97877050963142,
18.0,0.0,resp1,stim/left_resp_img.png,"[0.5, 0]",left,stim/silver_coin.png,silver,,,,,training,,,silver,deval,,,,,0.0,0.0,0.0,0.0,0.0,0.0,0.0,0.0,,,,,,,,,0.0,training_resp,,9.643433144083248,3.616518874652684,0.0,,left,silver,0.0,50.0,2.0,right,2021_Nov_15_1622,habits_v_MRI,5.0,40.0,1.0,5.0,30.0,15.0,5.0,15.0,30.0,30.0,60.0,RR,59.97877050963142,
18.0,0.0,resp1,stim/left_resp_img.png,"[0.5, 0]",left,stim/silver_coin.png,silver,,,,,training,,,silver,deval,,,,,0.0,0.0,0.0,0.0,0.0,0.0,0.0,0.0,,,,,,,,,0.0,training_resp,,9.893630573060364,3.866595778847113,0.0,,left,silver,0.0,50.0,2.0,right,2021_Nov_15_1622,habits_v_MRI,5.0,40.0,1.0,5.0,30.0,15.0,5.0,15.0,30.0,30.0,60.0,RR,59.97877050963142,
18.0,0.0,resp1,stim/left_resp_img.png,"[0.5, 0]",left,stim/silver_coin.png,silver,,,,,training,,,silver,deval,,,,,0.0,0.0,0.0,0.0,0.0,0.0,0.0,0.0,,,,,,,,,0.0,training_resp,,10.1769142546691,4.1499689009506255,0.0,,left,silver,0.0,50.0,2.0,right,2021_Nov_15_1622,habits_v_MRI,5.0,40.0,1.0,5.0,30.0,15.0,5.0,15.0,30.0,30.0,60.0,RR,59.97877050963142,
18.0,0.0,resp1,stim/left_resp_img.png,"[0.5, 0]",left,stim/silver_coin.png,silver,,,,,training,,,silver,deval,,,,,0.0,0.0,0.0,0.0,0.0,0.0,0.0,0.0,,,,,,,,,0.0,training_resp,,10.477035043528304,4.450065057026222,0.0,,left,silver,0.0,50.0,2.0,right,2021_Nov_15_1622,habits_v_MRI,5.0,40.0,1.0,5.0,30.0,15.0,5.0,15.0,30.0,30.0,60.0,RR,59.97877050963142,
18.0,0.0,resp1,stim/left_resp_img.png,"[0.5, 0]",left,stim/silver_coin.png,silver,,,,,training,,,silver,deval,,,,,0.0,0.0,0.0,0.0,0.0,0.0,0.0,0.0,,,,,,,,,0.0,training_resp,,11.527306488249453,5.500373157672584,0.0,,left,silver,0.0,50.0,2.0,right,2021_Nov_15_1622,habits_v_MRI,5.0,40.0,1.0,5.0,30.0,15.0,5.0,15.0,30.0,30.0,60.0,RR,59.97877050963142,
18.0,0.0,resp1,stim/left_resp_img.png,"[0.5, 0]",left,stim/silver_coin.png,silver,,,,,training,,,silver,deval,,,,,0.0,0.0,0.0,0.0,0.0,0.0,0.0,0.0,,,,,,,,,0.0,training_resp,,14.11162266554311,8.084570276318118,0.0,,left,silver,0.0,50.0,2.0,right,2021_Nov_15_1622,habits_v_MRI,5.0,40.0,1.0,5.0,30.0,15.0,5.0,15.0,30.0,30.0,60.0,RR,59.97877050963142,
18.0,0.0,resp1,stim/left_resp_img.png,"[0.5, 0]",left,stim/silver_coin.png,silver,,,,,training,,,silver,deval,,,,,0.0,0.0,0.0,0.0,0.0,0.0,0.0,0.0,,,,,,,,,0.0,training_resp,,14.711663368158042,8.684725345578045,0.0,,left,silver,0.0,50.0,2.0,right,2021_Nov_15_1622,habits_v_MRI,5.0,40.0,1.0,5.0,30.0,15.0,5.0,15.0,30.0,30.0,60.0,RR,59.97877050963142,
18.0,0.0,resp1,stim/left_resp_img.png,"[0.5, 0]",left,stim/silver_coin.png,silver,,,,,training,,,silver,deval,,,,,0.0,0.0,0.0,0.0,0.0,0.0,0.0,0.0,,,,,,,,,0.0,training_resp,,15.411835827166216,9.384912467096,0.0,,left,silver,0.0,50.0,2.0,right,2021_Nov_15_1622,habits_v_MRI,5.0,40.0,1.0,5.0,30.0,15.0,5.0,15.0,30.0,30.0,60.0,RR,59.97877050963142,
18.0,0.0,resp1,stim/left_resp_img.png,"[0.5, 0]",left,stim/silver_coin.png,silver,,,,,training,,,silver,deval,,,,,0.0,0.0,0.0,0.0,0.0,0.0,0.0,0.0,,,,,,,,,0.0,training_resp,,16.178723886143416,10.151800232706591,0.0,,left,silver,0.0,50.0,2.0,right,2021_Nov_15_1622,habits_v_MRI,5.0,40.0,1.0,5.0,30.0,15.0,5.0,15.0,30.0,30.0,60.0,RR,59.97877050963142,
18.0,0.0,resp1,stim/left_resp_img.png,"[0.5, 0]",left,stim/silver_coin.png,silver,,,,,training,,,silver,deval,,,,,0.0,0.0,0.0,0.0,0.0,0.0,0.0,0.0,,,,,,,,,0.0,training_resp,,17.629110049223527,11.602171147009358,0.0,,left,silver,0.0,50.0,2.0,right,2021_Nov_15_1622,habits_v_MRI,5.0,40.0,1.0,5.0,30.0,15.0,5.0,15.0,30.0,30.0,60.0,RR,59.97877050963142,
18.0,0.0,resp1,stim/left_resp_img.png,"[0.5, 0]",left,stim/silver_coin.png,silver,,,,,training,,,silver,deval,,,,,0.0,0.0,0.0,0.0,0.0,0.0,0.0,0.0,,,,,,,,,0.0,training_resp,,18.8961316824425,12.869190727360548,0.0,,left,silver,0.0,50.0,2.0,right,2021_Nov_15_1622,habits_v_MRI,5.0,40.0,1.0,5.0,30.0,15.0,5.0,15.0,30.0,30.0,60.0,RR,59.97877050963142,
18.0,0.0,resp1,stim/left_resp_img.png,"[0.5, 0]",left,stim/silver_coin.png,silver,,,,,training,,,silver,deval,,,,,0.0,0.0,0.0,0.0,0.0,0.0,0.0,0.0,,,,,,,,,0.0,training_resp,,40.03719582525082,34.01006895117462,0.0,,left,silver,0.0,50.0,2.0,right,2021_Nov_15_1622,habits_v_MRI,5.0,40.0,1.0,5.0,30.0,15.0,5.0,15.0,30.0,30.0,60.0,RR,59.97877050963142,
18.0,0.0,resp1,stim/left_resp_img.png,"[0.5, 0]",left,stim/silver_coin.png,silver,,,,,training,,,silver,deval,,,,,0.0,0.0,0.0,0.0,0.0,0.0,0.0,0.0,,,,,,,,,0.0,ITI_start,30.0,50.70723474211991,44.67891523009166,,,,,,50.0,2.0,right,2021_Nov_15_1622,habits_v_MRI,5.0,40.0,1.0,5.0,30.0,15.0,5.0,15.0,30.0,30.0,60.0,RR,59.97877050963142,
18.0,1.0,resp2,stim/right_resp_img.png,"[-0.5, 0]",right,stim/gold_coin.png,silver,,,,,training,,,gold,val,,,,,0.0,0.0,0.0,0.0,0.0,1.0,1.0,1.0,,,,,,,,,0.0,training_period_start,60.0,80.73684688983485,0.0,1.0,19.0,,,,50.0,2.0,right,2021_Nov_15_1622,habits_v_MRI,5.0,40.0,1.0,5.0,30.0,15.0,5.0,15.0,30.0,30.0,60.0,RR,59.97877050963142,
18.0,1.0,resp2,stim/right_resp_img.png,"[-0.5, 0]",right,stim/gold_coin.png,silver,,,,,training,,,gold,val,,,,,0.0,0.0,0.0,0.0,0.0,1.0,1.0,1.0,,,,,,,,,0.0,training_resp,,81.49890164099634,0.7817005841061473,1.0,,right,gold,0.0,50.0,2.0,right,2021_Nov_15_1622,habits_v_MRI,5.0,40.0,1.0,5.0,30.0,15.0,5.0,15.0,30.0,30.0,60.0,RR,59.97877050963142,
18.0,1.0,resp2,stim/right_resp_img.png,"[-0.5, 0]",right,stim/gold_coin.png,silver,,,,,training,,,gold,val,,,,,0.0,0.0,0.0,0.0,0.0,1.0,1.0,1.0,,,,,,,,,0.0,training_resp,,82.0155855261255,1.2983510391786697,1.0,,right,gold,0.0,50.0,2.0,right,2021_Nov_15_1622,habits_v_MRI,5.0,40.0,1.0,5.0,30.0,15.0,5.0,15.0,30.0,30.0,60.0,RR,59.97877050963142,
18.0,1.0,resp2,stim/right_resp_img.png,"[-0.5, 0]",right,stim/gold_coin.png,silver,,,,,training,,,gold,val,,,,,0.0,0.0,0.0,0.0,0.0,1.0,1.0,1.0,,,,,,,,,0.0,training_resp,,82.51578713394701,1.798606311203912,1.0,,right,gold,0.0,50.0,2.0,right,2021_Nov_15_1622,habits_v_MRI,5.0,40.0,1.0,5.0,30.0,15.0,5.0,15.0,30.0,30.0,60.0,RR,59.97877050963142,
18.0,1.0,resp2,stim/right_resp_img.png,"[-0.5, 0]",right,stim/gold_coin.png,silver,,,,,training,,,gold,val,,,,,0.0,0.0,0.0,0.0,0.0,1.0,1.0,1.0,,,,,,,,,0.0,training_resp,,83.34969078516588,2.632225218927488,1.0,,right,gold,0.0,50.0,2.0,right,2021_Nov_15_1622,habits_v_MRI,5.0,40.0,1.0,5.0,30.0,15.0,5.0,15.0,30.0,30.0,60.0,RR,59.97877050963142,
18.0,1.0,resp2,stim/right_resp_img.png,"[-0.5, 0]",right,stim/gold_coin.png,silver,,,,,training,,,gold,val,,,,,0.0,0.0,0.0,0.0,0.0,1.0,1.0,1.0,,,,,,,,,0.0,training_resp,,84.36626015719958,3.649119216017425,1.0,,right,gold,0.0,50.0,2.0,right,2021_Nov_15_1622,habits_v_MRI,5.0,40.0,1.0,5.0,30.0,15.0,5.0,15.0,30.0,30.0,60.0,RR,59.97877050963142,
18.0,1.0,resp2,stim/right_resp_img.png,"[-0.5, 0]",right,stim/gold_coin.png,silver,,,,,training,,,gold,val,,,,,0.0,0.0,0.0,0.0,0.0,1.0,1.0,1.0,,,,,,,,,0.0,training_resp,,85.16677287127823,4.449582664528862,1.0,,right,gold,0.0,50.0,2.0,right,2021_Nov_15_1622,habits_v_MRI,5.0,40.0,1.0,5.0,30.0,15.0,5.0,15.0,30.0,30.0,60.0,RR,59.97877050963142,
18.0,1.0,resp2,stim/right_resp_img.png,"[-0.5, 0]",right,stim/gold_coin.png,silver,,,,,training,,,gold,val,,,,,0.0,0.0,0.0,0.0,0.0,1.0,1.0,1.0,,,,,,,,,0.0,training_resp,,85.9835760788992,5.266349802725017,1.0,,right,gold,0.0,50.0,2.0,right,2021_Nov_15_1622,habits_v_MRI,5.0,40.0,1.0,5.0,30.0,15.0,5.0,15.0,30.0,30.0,60.0,RR,59.97877050963142,
18.0,1.0,resp2,stim/right_resp_img.png,"[-0.5, 0]",right,stim/gold_coin.png,silver,,,,,training,,,gold,val,,,,,0.0,0.0,0.0,0.0,0.0,1.0,1.0,1.0,,,,,,,,,0.0,training_resp,,86.18350968766026,5.46631625527516,1.0,,right,gold,0.0,50.0,2.0,right,2021_Nov_15_1622,habits_v_MRI,5.0,40.0,1.0,5.0,30.0,15.0,5.0,15.0,30.0,30.0,60.0,RR,59.97877050963142,
18.0,1.0,resp2,stim/right_resp_img.png,"[-0.5, 0]",right,stim/gold_coin.png,silver,,,,,training,,,gold,val,,,,,0.0,0.0,0.0,0.0,0.0,1.0,1.0,1.0,,,,,,,,,0.0,training_resp,,87.18432374321856,6.46716784639284,1.0,,right,gold,0.0,50.0,2.0,right,2021_Nov_15_1622,habits_v_MRI,5.0,40.0,1.0,5.0,30.0,15.0,5.0,15.0,30.0,30.0,60.0,RR,59.97877050963142,
18.0,1.0,resp2,stim/right_resp_img.png,"[-0.5, 0]",right,stim/gold_coin.png,silver,,,,,training,,,gold,val,,,,,0.0,0.0,0.0,0.0,0.0,1.0,1.0,1.0,,,,,,,,,0.0,training_resp,,88.7008829980623,7.983679595403373,1.0,,right,gold,0.0,50.0,2.0,right,2021_Nov_15_1622,habits_v_MRI,5.0,40.0,1.0,5.0,30.0,15.0,5.0,15.0,30.0,30.0,60.0,RR,59.97877050963142,
18.0,1.0,resp2,stim/right_resp_img.png,"[-0.5, 0]",right,stim/gold_coin.png,silver,,,,,training,,,gold,val,,,,,0.0,0.0,0.0,0.0,0.0,1.0,1.0,1.0,,,,,,,,,0.0,training_resp,,90.68469396838918,9.967507573775949,1.0,,right,gold,0.0,50.0,2.0,right,2021_Nov_15_1622,habits_v_MRI,5.0,40.0,1.0,5.0,30.0,15.0,5.0,15.0,30.0,30.0,60.0,RR,59.97877050963142,
18.0,1.0,resp2,stim/right_resp_img.png,"[-0.5, 0]",right,stim/gold_coin.png,silver,,,,,training,,,gold,val,,,,,0.0,0.0,0.0,0.0,0.0,1.0,1.0,1.0,,,,,,,,,0.0,training_resp,,93.01878720405512,12.301592892035842,1.0,,right,gold,0.0,50.0,2.0,right,2021_Nov_15_1622,habits_v_MRI,5.0,40.0,1.0,5.0,30.0,15.0,5.0,15.0,30.0,30.0,60.0,RR,59.97877050963142,
18.0,1.0,resp2,stim/right_resp_img.png,"[-0.5, 0]",right,stim/gold_coin.png,silver,,,,,training,,,gold,val,,,,,0.0,0.0,0.0,0.0,0.0,1.0,1.0,1.0,,,,,,,,,0.0,training_resp,,93.46862440765835,12.751533905277029,1.0,,right,gold,0.0,50.0,2.0,right,2021_Nov_15_1622,habits_v_MRI,5.0,40.0,1.0,5.0,30.0,15.0,5.0,15.0,30.0,30.0,60.0,RR,59.97877050963142,
18.0,1.0,resp2,stim/right_resp_img.png,"[-0.5, 0]",right,stim/gold_coin.png,silver,,,,,training,,,gold,val,,,,,0.0,0.0,0.0,0.0,0.0,1.0,1.0,1.0,,,,,,,,,0.0,training_resp,,93.93563243420796,13.218378885881975,1.0,,right,gold,0.0,50.0,2.0,right,2021_Nov_15_1622,habits_v_MRI,5.0,40.0,1.0,5.0,30.0,15.0,5.0,15.0,30.0,30.0,60.0,RR,59.97877050963142,
18.0,1.0,resp2,stim/right_resp_img.png,"[-0.5, 0]",right,stim/gold_coin.png,silver,,,,,training,,,gold,val,,,,,0.0,0.0,0.0,0.0,0.0,1.0,1.0,1.0,,,,,,,,,0.0,training_resp,,94.21900438331068,13.501892766915262,1.0,,right,gold,0.0,50.0,2.0,right,2021_Nov_15_1622,habits_v_MRI,5.0,40.0,1.0,5.0,30.0,15.0,5.0,15.0,30.0,30.0,60.0,RR,59.97877050963142,
18.0,1.0,resp2,stim/right_resp_img.png,"[-0.5, 0]",right,stim/gold_coin.png,silver,,,,,training,,,gold,val,,,,,0.0,0.0,0.0,0.0,0.0,1.0,1.0,1.0,,,,,,,,,0.0,training_resp,,96.56966875051148,15.85253132833168,1.0,,right,gold,0.0,50.0,2.0,right,2021_Nov_15_1622,habits_v_MRI,5.0,40.0,1.0,5.0,30.0,15.0,5.0,15.0,30.0,30.0,60.0,RR,59.97877050963142,
18.0,1.0,resp2,stim/right_resp_img.png,"[-0.5, 0]",right,stim/gold_coin.png,silver,,,,,training,,,gold,val,,,,,0.0,0.0,0.0,0.0,0.0,1.0,1.0,1.0,,,,,,,,,0.0,training_resp,,97.2032094784081,16.48611311102286,1.0,,right,gold,0.0,50.0,2.0,right,2021_Nov_15_1622,habits_v_MRI,5.0,40.0,1.0,5.0,30.0,15.0,5.0,15.0,30.0,30.0,60.0,RR,59.97877050963142,
18.0,1.0,resp2,stim/right_resp_img.png,"[-0.5, 0]",right,stim/gold_coin.png,silver,,,,,training,,,gold,val,,,,,0.0,0.0,0.0,0.0,0.0,1.0,1.0,1.0,,,,,,,,,0.0,training_resp,,127.61278993776068,46.895512636518106,1.0,,right,gold,0.0,50.0,2.0,right,2021_Nov_15_1622,habits_v_MRI,5.0,40.0,1.0,5.0,30.0,15.0,5.0,15.0,30.0,30.0,60.0,RR,59.97877050963142,
18.0,1.0,resp2,stim/right_resp_img.png,"[-0.5, 0]",right,stim/gold_coin.png,silver,,,,,training,,,gold,val,,,,,0.0,0.0,0.0,0.0,0.0,1.0,1.0,1.0,,,,,,,,,0.0,training_resp,,128.77974344952963,48.06252274499275,1.0,15.0,right,gold,1.0,50.0,2.0,right,2021_Nov_15_1622,habits_v_MRI,5.0,40.0,1.0,5.0,30.0,15.0,5.0,15.0,30.0,30.0,60.0,RR,59.97877050963142,
18.0,1.0,resp2,stim/right_resp_img.png,"[-0.5, 0]",right,stim/gold_coin.png,silver,,,,,training,,,gold,val,,,,,0.0,0.0,0.0,0.0,0.0,1.0,1.0,1.0,,,,,,,,,0.0,training_resp,,130.08022170700133,49.36294763162732,1.0,,right,gold,0.0,50.0,2.0,right,2021_Nov_15_1622,habits_v_MRI,5.0,40.0,1.0,5.0,30.0,15.0,5.0,15.0,30.0,30.0,60.0,RR,59.97877050963142,
18.0,1.0,resp2,stim/right_resp_img.png,"[-0.5, 0]",right,stim/gold_coin.png,silver,,,,,training,,,gold,val,,,,,0.0,0.0,0.0,0.0,0.0,1.0,1.0,1.0,,,,,,,,,0.0,training_resp,,131.04758588271216,50.32995961699635,1.0,,right,gold,0.0,50.0,2.0,right,2021_Nov_15_1622,habits_v_MRI,5.0,40.0,1.0,5.0,30.0,15.0,5.0,15.0,30.0,30.0,60.0,RR,59.97877050963142,
18.0,1.0,resp2,stim/right_resp_img.png,"[-0.5, 0]",right,stim/gold_coin.png,silver,,,,,training,,,gold,val,,,,,0.0,0.0,0.0,0.0,0.0,1.0,1.0,1.0,,,,,,,,,0.0,training_resp,,131.26383373816498,50.54662447026931,1.0,,right,gold,0.0,50.0,2.0,right,2021_Nov_15_1622,habits_v_MRI,5.0,40.0,1.0,5.0,30.0,15.0,5.0,15.0,30.0,30.0,60.0,RR,59.97877050963142,
18.0,1.0,resp2,stim/right_resp_img.png,"[-0.5, 0]",right,stim/gold_coin.png,silver,,,,,training,,,gold,val,,,,,0.0,0.0,0.0,0.0,0.0,1.0,1.0,1.0,,,,,,,,,0.0,training_resp,,131.78072905470617,51.06349192862399,1.0,,right,gold,0.0,50.0,2.0,right,2021_Nov_15_1622,habits_v_MRI,5.0,40.0,1.0,5.0,30.0,15.0,5.0,15.0,30.0,30.0,60.0,RR,59.97877050963142,
18.0,1.0,resp2,stim/right_resp_img.png,"[-0.5, 0]",right,stim/gold_coin.png,silver,,,,,training,,,gold,val,,,,,0.0,0.0,0.0,0.0,0.0,1.0,1.0,1.0,,,,,,,,,0.0,training_resp,,132.0641039365437,51.346884111873806,1.0,,right,gold,0.0,50.0,2.0,right,2021_Nov_15_1622,habits_v_MRI,5.0,40.0,1.0,5.0,30.0,15.0,5.0,15.0,30.0,30.0,60.0,RR,59.97877050963142,
18.0,1.0,resp2,stim/right_resp_img.png,"[-0.5, 0]",right,stim/gold_coin.png,silver,,,,,training,,,gold,val,,,,,0.0,0.0,0.0,0.0,0.0,1.0,1.0,1.0,,,,,,,,,0.0,training_resp,,132.63111820910126,51.91386290150695,1.0,,right,gold,0.0,50.0,2.0,right,2021_Nov_15_1622,habits_v_MRI,5.0,40.0,1.0,5.0,30.0,15.0,5.0,15.0,30.0,30.0,60.0,RR,59.97877050963142,
18.0,1.0,resp2,stim/right_resp_img.png,"[-0.5, 0]",right,stim/gold_coin.png,silver,,,,,training,,,gold,val,,,,,0.0,0.0,0.0,0.0,0.0,1.0,1.0,1.0,,,,,,,,,0.0,training_resp,,133.4314869386144,52.714510509511456,1.0,,right,gold,0.0,50.0,2.0,right,2021_Nov_15_1622,habits_v_MRI,5.0,40.0,1.0,5.0,30.0,15.0,5.0,15.0,30.0,30.0,60.0,RR,59.97877050963142,
18.0,1.0,resp2,stim/right_resp_img.png,"[-0.5, 0]",right,stim/gold_coin.png,silver,,,,,training,,,gold,val,,,,,0.0,0.0,0.0,0.0,0.0,1.0,1.0,1.0,,,,,,,,,0.0,training_resp,,133.76480130874552,53.04781461600214,1.0,,right,gold,0.0,50.0,2.0,right,2021_Nov_15_1622,habits_v_MRI,5.0,40.0,1.0,5.0,30.0,15.0,5.0,15.0,30.0,30.0,60.0,RR,59.97877050963142,
18.0,1.0,resp2,stim/right_resp_img.png,"[-0.5, 0]",right,stim/gold_coin.png,silver,,,,,training,,,gold,val,,,,,0.0,0.0,0.0,0.0,0.0,1.0,1.0,1.0,,,,,,,,,0.0,training_resp,,134.99821969354525,54.28109429473989,1.0,,right,gold,0.0,50.0,2.0,right,2021_Nov_15_1622,habits_v_MRI,5.0,40.0,1.0,5.0,30.0,15.0,5.0,15.0,30.0,30.0,60.0,RR,59.97877050963142,
18.0,1.0,resp2,stim/right_resp_img.png,"[-0.5, 0]",right,stim/gold_coin.png,silver,,,,,training,,,gold,val,,,,,0.0,0.0,0.0,0.0,0.0,1.0,1.0,1.0,,,,,,,,,0.0,training_resp,,135.3984622680582,54.68106414889917,1.0,,right,gold,0.0,50.0,2.0,right,2021_Nov_15_1622,habits_v_MRI,5.0,40.0,1.0,5.0,30.0,15.0,5.0,15.0,30.0,30.0,60.0,RR,59.97877050963142,
18.0,1.0,resp2,stim/right_resp_img.png,"[-0.5, 0]",right,stim/gold_coin.png,silver,,,,,training,,,gold,val,,,,,0.0,0.0,0.0,0.0,0.0,1.0,1.0,1.0,,,,,,,,,0.0,training_resp,,135.74832313670777,55.03114817896858,1.0,,right,gold,0.0,50.0,2.0,right,2021_Nov_15_1622,habits_v_MRI,5.0,40.0,1.0,5.0,30.0,15.0,5.0,15.0,30.0,30.0,60.0,RR,59.97877050963142,
18.0,1.0,resp2,stim/right_resp_img.png,"[-0.5, 0]",right,stim/gold_coin.png,silver,,,,,training,,,gold,val,,,,,0.0,0.0,0.0,0.0,0.0,1.0,1.0,1.0,,,,,,,,,0.0,training_resp,,137.1820325993467,56.46485089673661,1.0,,right,gold,0.0,50.0,2.0,right,2021_Nov_15_1622,habits_v_MRI,5.0,40.0,1.0,5.0,30.0,15.0,5.0,15.0,30.0,30.0,60.0,RR,59.97877050963142,
18.0,1.0,resp2,stim/right_resp_img.png,"[-0.5, 0]",right,stim/gold_coin.png,silver,,,,,training,,,gold,val,,,,,0.0,0.0,0.0,0.0,0.0,1.0,1.0,1.0,,,,,,,,,0.0,training_resp,,137.3988094732631,56.68155328580178,1.0,,right,gold,0.0,50.0,2.0,right,2021_Nov_15_1622,habits_v_MRI,5.0,40.0,1.0,5.0,30.0,15.0,5.0,15.0,30.0,30.0,60.0,RR,59.97877050963142,
18.0,1.0,resp2,stim/right_resp_img.png,"[-0.5, 0]",right,stim/gold_coin.png,silver,,,,,training,,,gold,val,,,,,0.0,0.0,0.0,0.0,0.0,1.0,1.0,1.0,,,,,,,,,0.0,training_resp,,138.2824617086444,57.56511813332327,1.0,,right,gold,0.0,50.0,2.0,right,2021_Nov_15_1622,habits_v_MRI,5.0,40.0,1.0,5.0,30.0,15.0,5.0,15.0,30.0,30.0,60.0,RR,59.97877050963142,
18.0,1.0,resp2,stim/right_resp_img.png,"[-0.5, 0]",right,stim/gold_coin.png,silver,,,,,training,,,gold,val,,,,,0.0,0.0,0.0,0.0,0.0,1.0,1.0,1.0,,,,,,,,,0.0,training_resp,,138.46573269250803,57.7485726904124,1.0,18.0,right,gold,1.0,50.0,2.0,right,2021_Nov_15_1622,habits_v_MRI,5.0,40.0,1.0,5.0,30.0,15.0,5.0,15.0,30.0,30.0,60.0,RR,59.97877050963142,
18.0,1.0,resp2,stim/right_resp_img.png,"[-0.5, 0]",right,stim/gold_coin.png,silver,,,,,training,,,gold,val,,,,,0.0,0.0,0.0,0.0,0.0,1.0,1.0,1.0,,,,,,,,,0.0,training_resp,,139.08261959301308,58.36545489891432,1.0,,right,gold,0.0,50.0,2.0,right,2021_Nov_15_1622,habits_v_MRI,5.0,40.0,1.0,5.0,30.0,15.0,5.0,15.0,30.0,30.0,60.0,RR,59.97877050963142,
18.0,1.0,resp2,stim/right_resp_img.png,"[-0.5, 0]",right,stim/gold_coin.png,silver,,,,,training,,,gold,val,,,,,0.0,0.0,0.0,0.0,0.0,1.0,1.0,1.0,,,,,,,,,0.0,training_resp,,139.5327174938284,58.81556247686967,1.0,,right,gold,0.0,50.0,2.0,right,2021_Nov_15_1622,habits_v_MRI,5.0,40.0,1.0,5.0,30.0,15.0,5.0,15.0,30.0,30.0,60.0,RR,59.97877050963142,
18.0,1.0,resp2,stim/right_resp_img.png,"[-0.5, 0]",right,stim/gold_coin.png,silver,,,,,training,,,gold,val,,,,,0.0,0.0,0.0,0.0,0.0,1.0,1.0,1.0,,,,,,,,,0.0,training_resp,,139.7160339311231,58.99888331303373,1.0,,right,gold,0.0,50.0,2.0,right,2021_Nov_15_1622,habits_v_MRI,5.0,40.0,1.0,5.0,30.0,15.0,5.0,15.0,30.0,30.0,60.0,RR,59.97877050963142,
18.0,1.0,resp2,stim/right_resp_img.png,"[-0.5, 0]",right,stim/gold_coin.png,silver,,,,,training,,,gold,val,,,,,0.0,0.0,0.0,0.0,0.0,1.0,1.0,1.0,,,,,,,,,0.0,training_resp,,139.99961907137185,59.28223825385794,1.0,,right,gold,0.0,50.0,2.0,right,2021_Nov_15_1622,habits_v_MRI,5.0,40.0,1.0,5.0,30.0,15.0,5.0,15.0,30.0,30.0,60.0,RR,59.97877050963142,
18.0,1.0,resp2,stim/right_resp_img.png,"[-0.5, 0]",right,stim/gold_coin.png,silver,,,,,training,,,gold,val,,,,,0.0,0.0,0.0,0.0,0.0,1.0,1.0,1.0,,,,,,,,,0.0,ITI_start,21.666666666666668,140.40075429179706,59.682296668644994,,,,,,50.0,2.0,right,2021_Nov_15_1622,habits_v_MRI,5.0,40.0,1.0,5.0,30.0,15.0,5.0,15.0,30.0,30.0,60.0,RR,59.97877050963142,
18.0,0.0,resp1,stim/left_resp_img.png,"[0.5, 0]",left,stim/silver_coin.png,silver,,,,,training,,,silver,deval,,,,,0.0,0.0,0.0,0.0,1.0,0.0,2.0,0.0,,,,,,,,,0.0,training_period_start,30.0,162.11142267053947,0.0,2.0,13.0,,,,50.0,2.0,right,2021_Nov_15_1622,habits_v_MRI,5.0,40.0,1.0,5.0,30.0,15.0,5.0,15.0,30.0,30.0,60.0,RR,59.97877050963142,
18.0,0.0,resp1,stim/left_resp_img.png,"[0.5, 0]",left,stim/silver_coin.png,silver,,,,,training,,,silver,deval,,,,,0.0,0.0,0.0,0.0,1.0,0.0,2.0,0.0,,,,,,,,,0.0,training_resp,,162.78977398527786,0.6984830594155937,2.0,,left,silver,0.0,50.0,2.0,right,2021_Nov_15_1622,habits_v_MRI,5.0,40.0,1.0,5.0,30.0,15.0,5.0,15.0,30.0,30.0,60.0,RR,59.97877050963142,
18.0,0.0,resp1,stim/left_resp_img.png,"[0.5, 0]",left,stim/silver_coin.png,silver,,,,,training,,,silver,deval,,,,,0.0,0.0,0.0,0.0,1.0,0.0,2.0,0.0,,,,,,,,,0.0,training_resp,,163.1397800114937,1.0485380578320471,2.0,,left,silver,0.0,50.0,2.0,right,2021_Nov_15_1622,habits_v_MRI,5.0,40.0,1.0,5.0,30.0,15.0,5.0,15.0,30.0,30.0,60.0,RR,59.97877050963142,
18.0,0.0,resp1,stim/left_resp_img.png,"[0.5, 0]",left,stim/silver_coin.png,silver,,,,,training,,,silver,deval,,,,,0.0,0.0,0.0,0.0,1.0,0.0,2.0,0.0,,,,,,,,,0.0,training_resp,,163.5065615628846,1.415339256869629,2.0,,left,silver,0.0,50.0,2.0,right,2021_Nov_15_1622,habits_v_MRI,5.0,40.0,1.0,5.0,30.0,15.0,5.0,15.0,30.0,30.0,60.0,RR,59.97877050963142,
18.0,0.0,resp1,stim/left_resp_img.png,"[0.5, 0]",left,stim/silver_coin.png,silver,,,,,training,,,silver,deval,,,,,0.0,0.0,0.0,0.0,1.0,0.0,2.0,0.0,,,,,,,,,0.0,training_resp,,163.99002987332642,1.8987688585184517,2.0,,left,silver,0.0,50.0,2.0,right,2021_Nov_15_1622,habits_v_MRI,5.0,40.0,1.0,5.0,30.0,15.0,5.0,15.0,30.0,30.0,60.0,RR,59.97877050963142,
18.0,0.0,resp1,stim/left_resp_img.png,"[0.5, 0]",left,stim/silver_coin.png,silver,,,,,training,,,silver,deval,,,,,0.0,0.0,0.0,0.0,1.0,0.0,2.0,0.0,,,,,,,,,0.0,training_resp,,164.35642404435202,2.265343670267612,2.0,,left,silver,0.0,50.0,2.0,right,2021_Nov_15_1622,habits_v_MRI,5.0,40.0,1.0,5.0,30.0,15.0,5.0,15.0,30.0,30.0,60.0,RR,59.97877050963142,
18.0,0.0,resp1,stim/left_resp_img.png,"[0.5, 0]",left,stim/silver_coin.png,silver,,,,,training,,,silver,deval,,,,,0.0,0.0,0.0,0.0,1.0,0.0,2.0,0.0,,,,,,,,,0.0,training_resp,,164.6731100997422,2.5820593433454637,2.0,,left,silver,0.0,50.0,2.0,right,2021_Nov_15_1622,habits_v_MRI,5.0,40.0,1.0,5.0,30.0,15.0,5.0,15.0,30.0,30.0,60.0,RR,59.97877050963142,
18.0,0.0,resp1,stim/left_resp_img.png,"[0.5, 0]",left,stim/silver_coin.png,silver,,,,,training,,,silver,deval,,,,,0.0,0.0,0.0,0.0,1.0,0.0,2.0,0.0,,,,,,,,,0.0,training_resp,,164.97333088587038,2.882280129706487,2.0,,left,silver,0.0,50.0,2.0,right,2021_Nov_15_1622,habits_v_MRI,5.0,40.0,1.0,5.0,30.0,15.0,5.0,15.0,30.0,30.0,60.0,RR,59.97877050963142,
18.0,0.0,resp1,stim/left_resp_img.png,"[0.5, 0]",left,stim/silver_coin.png,silver,,,,,training,,,silver,deval,,,,,0.0,0.0,0.0,0.0,1.0,0.0,2.0,0.0,,,,,,,,,0.0,training_resp,,165.2733293902129,3.182252828264609,2.0,,left,silver,0.0,50.0,2.0,right,2021_Nov_15_1622,habits_v_MRI,5.0,40.0,1.0,5.0,30.0,15.0,5.0,15.0,30.0,30.0,60.0,RR,59.97877050963142,
18.0,0.0,resp1,stim/left_resp_img.png,"[0.5, 0]",left,stim/silver_coin.png,silver,,,,,training,,,silver,deval,,,,,0.0,0.0,0.0,0.0,1.0,0.0,2.0,0.0,,,,,,,,,0.0,training_resp,,165.59003949165344,3.4990230456460267,2.0,,left,silver,0.0,50.0,2.0,right,2021_Nov_15_1622,habits_v_MRI,5.0,40.0,1.0,5.0,30.0,15.0,5.0,15.0,30.0,30.0,60.0,RR,59.97877050963142,
18.0,0.0,resp1,stim/left_resp_img.png,"[0.5, 0]",left,stim/silver_coin.png,silver,,,,,training,,,silver,deval,,,,,0.0,0.0,0.0,0.0,1.0,0.0,2.0,0.0,,,,,,,,,0.0,training_resp,,166.00690099713393,3.915859331609681,2.0,,left,silver,0.0,50.0,2.0,right,2021_Nov_15_1622,habits_v_MRI,5.0,40.0,1.0,5.0,30.0,15.0,5.0,15.0,30.0,30.0,60.0,RR,59.97877050963142,
18.0,0.0,resp1,stim/left_resp_img.png,"[0.5, 0]",left,stim/silver_coin.png,silver,,,,,training,,,silver,deval,,,,,0.0,0.0,0.0,0.0,1.0,0.0,2.0,0.0,,,,,,,,,0.0,training_resp,,166.40711747249588,4.316037978045642,2.0,,left,silver,0.0,50.0,2.0,right,2021_Nov_15_1622,habits_v_MRI,5.0,40.0,1.0,5.0,30.0,15.0,5.0,15.0,30.0,30.0,60.0,RR,59.97877050963142,
18.0,0.0,resp1,stim/left_resp_img.png,"[0.5, 0]",left,stim/silver_coin.png,silver,,,,,training,,,silver,deval,,,,,0.0,0.0,0.0,0.0,1.0,0.0,2.0,0.0,,,,,,,,,0.0,training_resp,,166.7739025426563,4.682814250933006,2.0,,left,silver,0.0,50.0,2.0,right,2021_Nov_15_1622,habits_v_MRI,5.0,40.0,1.0,5.0,30.0,15.0,5.0,15.0,30.0,30.0,60.0,RR,59.97877050963142,
18.0,0.0,resp1,stim/left_resp_img.png,"[0.5, 0]",left,stim/silver_coin.png,silver,,,,,training,,,silver,deval,,,,,0.0,0.0,0.0,0.0,1.0,0.0,2.0,0.0,,,,,,,,,0.0,training_resp,,167.4241578001529,5.333047807915136,2.0,14.0,left,silver,1.0,50.0,2.0,right,2021_Nov_15_1622,habits_v_MRI,5.0,40.0,1.0,5.0,30.0,15.0,5.0,15.0,30.0,30.0,60.0,RR,59.97877050963142,
18.0,0.0,resp1,stim/left_resp_img.png,"[0.5, 0]",left,stim/silver_coin.png,silver,,,,,training,,,silver,deval,,,,,0.0,0.0,0.0,0.0,1.0,0.0,2.0,0.0,,,,,,,,,0.0,training_resp,,168.09099064045586,5.999907920369878,2.0,,left,silver,0.0,50.0,2.0,right,2021_Nov_15_1622,habits_v_MRI,5.0,40.0,1.0,5.0,30.0,15.0,5.0,15.0,30.0,30.0,60.0,RR,59.97877050963142,
18.0,0.0,resp1,stim/left_resp_img.png,"[0.5, 0]",left,stim/silver_coin.png,silver,,,,,training,,,silver,deval,,,,,0.0,0.0,0.0,0.0,1.0,0.0,2.0,0.0,,,,,,,,,0.0,training_resp,,168.49116254225373,6.400052550015971,2.0,,left,silver,0.0,50.0,2.0,right,2021_Nov_15_1622,habits_v_MRI,5.0,40.0,1.0,5.0,30.0,15.0,5.0,15.0,30.0,30.0,60.0,RR,59.97877050963142,
18.0,0.0,resp1,stim/left_resp_img.png,"[0.5, 0]",left,stim/silver_coin.png,silver,,,,,training,,,silver,deval,,,,,0.0,0.0,0.0,0.0,1.0,0.0,2.0,0.0,,,,,,,,,0.0,training_resp,,168.84150257753208,6.750235991086811,2.0,,left,silver,0.0,50.0,2.0,right,2021_Nov_15_1622,habits_v_MRI,5.0,40.0,1.0,5.0,30.0,15.0,5.0,15.0,30.0,30.0,60.0,RR,59.97877050963142,
18.0,0.0,resp1,stim/left_resp_img.png,"[0.5, 0]",left,stim/silver_coin.png,silver,,,,,training,,,silver,deval,,,,,0.0,0.0,0.0,0.0,1.0,0.0,2.0,0.0,,,,,,,,,0.0,training_resp,,169.12526483950205,7.033587706275284,2.0,,left,silver,0.0,50.0,2.0,right,2021_Nov_15_1622,habits_v_MRI,5.0,40.0,1.0,5.0,30.0,15.0,5.0,15.0,30.0,30.0,60.0,RR,59.97877050963142,
18.0,0.0,resp1,stim/left_resp_img.png,"[0.5, 0]",left,stim/silver_coin.png,silver,,,,,training,,,silver,deval,,,,,0.0,0.0,0.0,0.0,1.0,0.0,2.0,0.0,,,,,,,,,0.0,training_resp,,169.374905097764,7.283675460610539,2.0,,left,silver,0.0,50.0,2.0,right,2021_Nov_15_1622,habits_v_MRI,5.0,40.0,1.0,5.0,30.0,15.0,5.0,15.0,30.0,30.0,60.0,RR,59.97877050963142,
18.0,0.0,resp1,stim/left_resp_img.png,"[0.5, 0]",left,stim/silver_coin.png,silver,,,,,training,,,silver,deval,,,,,0.0,0.0,0.0,0.0,1.0,0.0,2.0,0.0,,,,,,,,,0.0,training_resp,,169.64170591556467,7.550436103250831,2.0,,left,silver,0.0,50.0,2.0,right,2021_Nov_15_1622,habits_v_MRI,5.0,40.0,1.0,5.0,30.0,15.0,5.0,15.0,30.0,30.0,60.0,RR,59.97877050963142,
18.0,0.0,resp1,stim/left_resp_img.png,"[0.5, 0]",left,stim/silver_coin.png,silver,,,,,training,,,silver,deval,,,,,0.0,0.0,0.0,0.0,1.0,0.0,2.0,0.0,,,,,,,,,0.0,training_resp,,169.90843694028445,7.817201731260866,2.0,,left,silver,0.0,50.0,2.0,right,2021_Nov_15_1622,habits_v_MRI,5.0,40.0,1.0,5.0,30.0,15.0,5.0,15.0,30.0,30.0,60.0,RR,59.97877050963142,
18.0,0.0,resp1,stim/left_resp_img.png,"[0.5, 0]",left,stim/silver_coin.png,silver,,,,,training,,,silver,deval,,,,,0.0,0.0,0.0,0.0,1.0,0.0,2.0,0.0,,,,,,,,,0.0,training_resp,,170.19186841859482,8.10061062965542,2.0,,left,silver,0.0,50.0,2.0,right,2021_Nov_15_1622,habits_v_MRI,5.0,40.0,1.0,5.0,30.0,15.0,5.0,15.0,30.0,30.0,60.0,RR,59.97877050963142,
18.0,0.0,resp1,stim/left_resp_img.png,"[0.5, 0]",left,stim/silver_coin.png,silver,,,,,training,,,silver,deval,,,,,0.0,0.0,0.0,0.0,1.0,0.0,2.0,0.0,,,,,,,,,0.0,training_resp,,170.47528787399642,8.384011023910716,2.0,,left,silver,0.0,50.0,2.0,right,2021_Nov_15_1622,habits_v_MRI,5.0,40.0,1.0,5.0,30.0,15.0,5.0,15.0,30.0,30.0,60.0,RR,59.97877050963142,
18.0,0.0,resp1,stim/left_resp_img.png,"[0.5, 0]",left,stim/silver_coin.png,silver,,,,,training,,,silver,deval,,,,,0.0,0.0,0.0,0.0,1.0,0.0,2.0,0.0,,,,,,,,,0.0,training_resp,,170.75867067323998,8.66742842644453,2.0,,left,silver,0.0,50.0,2.0,right,2021_Nov_15_1622,habits_v_MRI,5.0,40.0,1.0,5.0,30.0,15.0,5.0,15.0,30.0,30.0,60.0,RR,59.97877050963142,
18.0,0.0,resp1,stim/left_resp_img.png,"[0.5, 0]",left,stim/silver_coin.png,silver,,,,,training,,,silver,deval,,,,,0.0,0.0,0.0,0.0,1.0,0.0,2.0,0.0,,,,,,,,,0.0,training_resp,,170.99227527040057,8.9008579547517,2.0,,left,silver,0.0,50.0,2.0,right,2021_Nov_15_1622,habits_v_MRI,5.0,40.0,1.0,5.0,30.0,15.0,5.0,15.0,30.0,30.0,60.0,RR,59.97877050963142,
18.0,0.0,resp1,stim/left_resp_img.png,"[0.5, 0]",left,stim/silver_coin.png,silver,,,,,training,,,silver,deval,,,,,0.0,0.0,0.0,0.0,1.0,0.0,2.0,0.0,,,,,,,,,0.0,training_resp,,171.29218462761492,9.200936515815556,2.0,,left,silver,0.0,50.0,2.0,right,2021_Nov_15_1622,habits_v_MRI,5.0,40.0,1.0,5.0,30.0,15.0,5.0,15.0,30.0,30.0,60.0,RR,59.97877050963142,
18.0,0.0,resp1,stim/left_resp_img.png,"[0.5, 0]",left,stim/silver_coin.png,silver,,,,,training,,,silver,deval,,,,,0.0,0.0,0.0,0.0,1.0,0.0,2.0,0.0,,,,,,,,,0.0,training_resp,,171.70895229373127,9.617697730427608,2.0,,left,silver,0.0,50.0,2.0,right,2021_Nov_15_1622,habits_v_MRI,5.0,40.0,1.0,5.0,30.0,15.0,5.0,15.0,30.0,30.0,60.0,RR,59.97877050963142,
18.0,0.0,resp1,stim/left_resp_img.png,"[0.5, 0]",left,stim/silver_coin.png,silver,,,,,training,,,silver,deval,,,,,0.0,0.0,0.0,0.0,1.0,0.0,2.0,0.0,,,,,,,,,0.0,training_resp,,172.22575318464078,10.134528532624245,2.0,15.0,left,silver,1.0,50.0,2.0,right,2021_Nov_15_1622,habits_v_MRI,5.0,40.0,1.0,5.0,30.0,15.0,5.0,15.0,30.0,30.0,60.0,RR,59.97877050963142,
18.0,0.0,resp1,stim/left_resp_img.png,"[0.5, 0]",left,stim/silver_coin.png,silver,,,,,training,,,silver,deval,,,,,0.0,0.0,0.0,0.0,1.0,0.0,2.0,0.0,,,,,,,,,0.0,training_resp,,172.79293196927756,10.701719340402631,2.0,,left,silver,0.0,50.0,2.0,right,2021_Nov_15_1622,habits_v_MRI,5.0,40.0,1.0,5.0,30.0,15.0,5.0,15.0,30.0,30.0,60.0,RR,59.97877050963142,
18.0,0.0,resp1,stim/left_resp_img.png,"[0.5, 0]",left,stim/silver_coin.png,silver,,,,,training,,,silver,deval,,,,,0.0,0.0,0.0,0.0,1.0,0.0,2.0,0.0,,,,,,,,,0.0,training_resp,,173.2097952340264,11.118524248944595,2.0,,left,silver,0.0,50.0,2.0,right,2021_Nov_15_1622,habits_v_MRI,5.0,40.0,1.0,5.0,30.0,15.0,5.0,15.0,30.0,30.0,60.0,RR,59.97877050963142,
18.0,0.0,resp1,stim/left_resp_img.png,"[0.5, 0]",left,stim/silver_coin.png,silver,,,,,training,,,silver,deval,,,,,0.0,0.0,0.0,0.0,1.0,0.0,2.0,0.0,,,,,,,,,0.0,training_resp,,173.64323344244622,11.551952780224385,2.0,,left,silver,0.0,50.0,2.0,right,2021_Nov_15_1622,habits_v_MRI,5.0,40.0,1.0,5.0,30.0,15.0,5.0,15.0,30.0,30.0,60.0,RR,59.97877050963142,
18.0,0.0,resp1,stim/left_resp_img.png,"[0.5, 0]",left,stim/silver_coin.png,silver,,,,,training,,,silver,deval,,,,,0.0,0.0,0.0,0.0,1.0,0.0,2.0,0.0,,,,,,,,,0.0,training_resp,,173.95960161741823,11.868555259890854,2.0,,left,silver,0.0,50.0,2.0,right,2021_Nov_15_1622,habits_v_MRI,5.0,40.0,1.0,5.0,30.0,15.0,5.0,15.0,30.0,30.0,60.0,RR,59.97877050963142,
18.0,0.0,resp1,stim/left_resp_img.png,"[0.5, 0]",left,stim/silver_coin.png,silver,,,,,training,,,silver,deval,,,,,0.0,0.0,0.0,0.0,1.0,0.0,2.0,0.0,,,,,,,,,0.0,training_resp,,174.24289702880196,12.151870905421674,2.0,,left,silver,0.0,50.0,2.0,right,2021_Nov_15_1622,habits_v_MRI,5.0,40.0,1.0,5.0,30.0,15.0,5.0,15.0,30.0,30.0,60.0,RR,59.97877050963142,
18.0,0.0,resp1,stim/left_resp_img.png,"[0.5, 0]",left,stim/silver_coin.png,silver,,,,,training,,,silver,deval,,,,,0.0,0.0,0.0,0.0,1.0,0.0,2.0,0.0,,,,,,,,,0.0,training_resp,,174.5265024031978,12.43544138316065,2.0,,left,silver,0.0,50.0,2.0,right,2021_Nov_15_1622,habits_v_MRI,5.0,40.0,1.0,5.0,30.0,15.0,5.0,15.0,30.0,30.0,60.0,RR,59.97877050963142,
18.0,0.0,resp1,stim/left_resp_img.png,"[0.5, 0]",left,stim/silver_coin.png,silver,,,,,training,,,silver,deval,,,,,0.0,0.0,0.0,0.0,1.0,0.0,2.0,0.0,,,,,,,,,0.0,training_resp,,174.82657979126088,12.735514079453424,2.0,,left,silver,0.0,50.0,2.0,right,2021_Nov_15_1622,habits_v_MRI,5.0,40.0,1.0,5.0,30.0,15.0,5.0,15.0,30.0,30.0,60.0,RR,59.97877050963142,
18.0,0.0,resp1,stim/left_resp_img.png,"[0.5, 0]",left,stim/silver_coin.png,silver,,,,,training,,,silver,deval,,,,,0.0,0.0,0.0,0.0,1.0,0.0,2.0,0.0,,,,,,,,,0.0,training_resp,,175.12670057988726,13.035552758723496,2.0,,left,silver,0.0,50.0,2.0,right,2021_Nov_15_1622,habits_v_MRI,5.0,40.0,1.0,5.0,30.0,15.0,5.0,15.0,30.0,30.0,60.0,RR,59.97877050963142,
18.0,0.0,resp1,stim/left_resp_img.png,"[0.5, 0]",left,stim/silver_coin.png,silver,,,,,training,,,silver,deval,,,,,0.0,0.0,0.0,0.0,1.0,0.0,2.0,0.0,,,,,,,,,0.0,training_resp,,175.44354704162106,13.352378693176432,2.0,,left,silver,0.0,50.0,2.0,right,2021_Nov_15_1622,habits_v_MRI,5.0,40.0,1.0,5.0,30.0,15.0,5.0,15.0,30.0,30.0,60.0,RR,59.97877050963142,
18.0,0.0,resp1,stim/left_resp_img.png,"[0.5, 0]",left,stim/silver_coin.png,silver,,,,,training,,,silver,deval,,,,,0.0,0.0,0.0,0.0,1.0,0.0,2.0,0.0,,,,,,,,,0.0,training_resp,,175.71033173054457,13.619160156464204,2.0,,left,silver,0.0,50.0,2.0,right,2021_Nov_15_1622,habits_v_MRI,5.0,40.0,1.0,5.0,30.0,15.0,5.0,15.0,30.0,30.0,60.0,RR,59.97877050963142,
18.0,0.0,resp1,stim/left_resp_img.png,"[0.5, 0]",left,stim/silver_coin.png,silver,,,,,training,,,silver,deval,,,,,0.0,0.0,0.0,0.0,1.0,0.0,2.0,0.0,,,,,,,,,0.0,training_resp,,175.97704457398504,13.88580907182768,2.0,,left,silver,0.0,50.0,2.0,right,2021_Nov_15_1622,habits_v_MRI,5.0,40.0,1.0,5.0,30.0,15.0,5.0,15.0,30.0,30.0,60.0,RR,59.97877050963142,
18.0,0.0,resp1,stim/left_resp_img.png,"[0.5, 0]",left,stim/silver_coin.png,silver,,,,,training,,,silver,deval,,,,,0.0,0.0,0.0,0.0,1.0,0.0,2.0,0.0,,,,,,,,,0.0,training_resp,,176.26046872138977,14.169310343218967,2.0,,left,silver,0.0,50.0,2.0,right,2021_Nov_15_1622,habits_v_MRI,5.0,40.0,1.0,5.0,30.0,15.0,5.0,15.0,30.0,30.0,60.0,RR,59.97877050963142,
18.0,0.0,resp1,stim/left_resp_img.png,"[0.5, 0]",left,stim/silver_coin.png,silver,,,,,training,,,silver,deval,,,,,0.0,0.0,0.0,0.0,1.0,0.0,2.0,0.0,,,,,,,,,0.0,training_resp,,176.51054152008146,14.419394578551874,2.0,,left,silver,0.0,50.0,2.0,right,2021_Nov_15_1622,habits_v_MRI,5.0,40.0,1.0,5.0,30.0,15.0,5.0,15.0,30.0,30.0,60.0,RR,59.97877050963142,
18.0,0.0,resp1,stim/left_resp_img.png,"[0.5, 0]",left,stim/silver_coin.png,silver,,,,,training,,,silver,deval,,,,,0.0,0.0,0.0,0.0,1.0,0.0,2.0,0.0,,,,,,,,,0.0,training_resp,,176.7938565791119,14.702704945812002,2.0,,left,silver,0.0,50.0,2.0,right,2021_Nov_15_1622,habits_v_MRI,5.0,40.0,1.0,5.0,30.0,15.0,5.0,15.0,30.0,30.0,60.0,RR,59.97877050963142,
18.0,0.0,resp1,stim/left_resp_img.png,"[0.5, 0]",left,stim/silver_coin.png,silver,,,,,training,,,silver,deval,,,,,0.0,0.0,0.0,0.0,1.0,0.0,2.0,0.0,,,,,,,,,0.0,training_resp,,177.04393084417097,14.952804136788473,2.0,19.0,left,silver,1.0,50.0,2.0,right,2021_Nov_15_1622,habits_v_MRI,5.0,40.0,1.0,5.0,30.0,15.0,5.0,15.0,30.0,30.0,60.0,RR,59.97877050963142,
18.0,0.0,resp1,stim/left_resp_img.png,"[0.5, 0]",left,stim/silver_coin.png,silver,,,,,training,,,silver,deval,,,,,0.0,0.0,0.0,0.0,1.0,0.0,2.0,0.0,,,,,,,,,0.0,training_resp,,177.8607935809996,15.769688280764967,2.0,,left,silver,0.0,50.0,2.0,right,2021_Nov_15_1622,habits_v_MRI,5.0,40.0,1.0,5.0,30.0,15.0,5.0,15.0,30.0,30.0,60.0,RR,59.97877050963142,
18.0,0.0,resp1,stim/left_resp_img.png,"[0.5, 0]",left,stim/silver_coin.png,silver,,,,,training,,,silver,deval,,,,,0.0,0.0,0.0,0.0,1.0,0.0,2.0,0.0,,,,,,,,,0.0,training_resp,,178.11117047746666,16.019734687171876,2.0,,left,silver,0.0,50.0,2.0,right,2021_Nov_15_1622,habits_v_MRI,5.0,40.0,1.0,5.0,30.0,15.0,5.0,15.0,30.0,30.0,60.0,RR,59.97877050963142,
18.0,0.0,resp1,stim/left_resp_img.png,"[0.5, 0]",left,stim/silver_coin.png,silver,,,,,training,,,silver,deval,,,,,0.0,0.0,0.0,0.0,1.0,0.0,2.0,0.0,,,,,,,,,0.0,training_resp,,178.36094093788415,16.26986085693352,2.0,,left,silver,0.0,50.0,2.0,right,2021_Nov_15_1622,habits_v_MRI,5.0,40.0,1.0,5.0,30.0,15.0,5.0,15.0,30.0,30.0,60.0,RR,59.97877050963142,
18.0,0.0,resp1,stim/left_resp_img.png,"[0.5, 0]",left,stim/silver_coin.png,silver,,,,,training,,,silver,deval,,,,,0.0,0.0,0.0,0.0,1.0,0.0,2.0,0.0,,,,,,,,,0.0,training_resp,,178.61124305636622,16.520070015918463,2.0,,left,silver,0.0,50.0,2.0,right,2021_Nov_15_1622,habits_v_MRI,5.0,40.0,1.0,5.0,30.0,15.0,5.0,15.0,30.0,30.0,60.0,RR,59.97877050963142,
18.0,0.0,resp1,stim/left_resp_img.png,"[0.5, 0]",left,stim/silver_coin.png,silver,,,,,training,,,silver,deval,,,,,0.0,0.0,0.0,0.0,1.0,0.0,2.0,0.0,,,,,,,,,0.0,training_resp,,178.84461774746887,16.753460542298853,2.0,,left,silver,0.0,50.0,2.0,right,2021_Nov_15_1622,habits_v_MRI,5.0,40.0,1.0,5.0,30.0,15.0,5.0,15.0,30.0,30.0,60.0,RR,59.97877050963142,
18.0,0.0,resp1,stim/left_resp_img.png,"[0.5, 0]",left,stim/silver_coin.png,silver,,,,,training,,,silver,deval,,,,,0.0,0.0,0.0,0.0,1.0,0.0,2.0,0.0,,,,,,,,,0.0,training_resp,,179.09469611779787,17.00353656685911,2.0,,left,silver,0.0,50.0,2.0,right,2021_Nov_15_1622,habits_v_MRI,5.0,40.0,1.0,5.0,30.0,15.0,5.0,15.0,30.0,30.0,60.0,RR,59.97877050963142,
18.0,0.0,resp1,stim/left_resp_img.png,"[0.5, 0]",left,stim/silver_coin.png,silver,,,,,training,,,silver,deval,,,,,0.0,0.0,0.0,0.0,1.0,0.0,2.0,0.0,,,,,,,,,0.0,training_resp,,179.34474897570908,17.25361259118654,2.0,,left,silver,0.0,50.0,2.0,right,2021_Nov_15_1622,habits_v_MRI,5.0,40.0,1.0,5.0,30.0,15.0,5.0,15.0,30.0,30.0,60.0,RR,59.97877050963142,
18.0,0.0,resp1,stim/left_resp_img.png,"[0.5, 0]",left,stim/silver_coin.png,silver,,,,,training,,,silver,deval,,,,,0.0,0.0,0.0,0.0,1.0,0.0,2.0,0.0,,,,,,,,,0.0,training_resp,,179.57794947759248,17.486810453934595,2.0,,left,silver,0.0,50.0,2.0,right,2021_Nov_15_1622,habits_v_MRI,5.0,40.0,1.0,5.0,30.0,15.0,5.0,15.0,30.0,30.0,60.0,RR,59.97877050963142,
18.0,0.0,resp1,stim/left_resp_img.png,"[0.5, 0]",left,stim/silver_coin.png,silver,,,,,training,,,silver,deval,,,,,0.0,0.0,0.0,0.0,1.0,0.0,2.0,0.0,,,,,,,,,0.0,training_resp,,179.81216813530773,17.72105872957036,2.0,,left,silver,0.0,50.0,2.0,right,2021_Nov_15_1622,habits_v_MRI,5.0,40.0,1.0,5.0,30.0,15.0,5.0,15.0,30.0,30.0,60.0,RR,59.97877050963142,
18.0,0.0,resp1,stim/left_resp_img.png,"[0.5, 0]",left,stim/silver_coin.png,silver,,,,,training,,,silver,deval,,,,,0.0,0.0,0.0,0.0,1.0,0.0,2.0,0.0,,,,,,,,,0.0,training_resp,,180.06221395544708,17.971099564339966,2.0,,left,silver,0.0,50.0,2.0,right,2021_Nov_15_1622,habits_v_MRI,5.0,40.0,1.0,5.0,30.0,15.0,5.0,15.0,30.0,30.0,60.0,RR,59.97877050963142,
18.0,0.0,resp1,stim/left_resp_img.png,"[0.5, 0]",left,stim/silver_coin.png,silver,,,,,training,,,silver,deval,,,,,0.0,0.0,0.0,0.0,1.0,0.0,2.0,0.0,,,,,,,,,0.0,training_resp,,180.29553791461512,18.204450502293184,2.0,,left,silver,0.0,50.0,2.0,right,2021_Nov_15_1622,habits_v_MRI,5.0,40.0,1.0,5.0,30.0,15.0,5.0,15.0,30.0,30.0,60.0,RR,59.97877050963142,
18.0,0.0,resp1,stim/left_resp_img.png,"[0.5, 0]",left,stim/silver_coin.png,silver,,,,,training,,,silver,deval,,,,,0.0,0.0,0.0,0.0,1.0,0.0,2.0,0.0,,,,,,,,,0.0,training_resp,,180.56224108068272,18.471084462245926,2.0,,left,silver,0.0,50.0,2.0,right,2021_Nov_15_1622,habits_v_MRI,5.0,40.0,1.0,5.0,30.0,15.0,5.0,15.0,30.0,30.0,60.0,RR,59.97877050963142,
18.0,0.0,resp1,stim/left_resp_img.png,"[0.5, 0]",left,stim/silver_coin.png,silver,,,,,training,,,silver,deval,,,,,0.0,0.0,0.0,0.0,1.0,0.0,2.0,0.0,,,,,,,,,0.0,training_resp,,180.81214907439423,18.721031457651407,2.0,,left,silver,0.0,50.0,2.0,right,2021_Nov_15_1622,habits_v_MRI,5.0,40.0,1.0,5.0,30.0,15.0,5.0,15.0,30.0,30.0,60.0,RR,59.97877050963142,
18.0,0.0,resp1,stim/left_resp_img.png,"[0.5, 0]",left,stim/silver_coin.png,silver,,,,,training,,,silver,deval,,,,,0.0,0.0,0.0,0.0,1.0,0.0,2.0,0.0,,,,,,,,,0.0,training_resp,,181.04545162641443,18.95433606253937,2.0,,left,silver,0.0,50.0,2.0,right,2021_Nov_15_1622,habits_v_MRI,5.0,40.0,1.0,5.0,30.0,15.0,5.0,15.0,30.0,30.0,60.0,RR,59.97877050963142,
18.0,0.0,resp1,stim/left_resp_img.png,"[0.5, 0]",left,stim/silver_coin.png,silver,,,,,training,,,silver,deval,,,,,0.0,0.0,0.0,0.0,1.0,0.0,2.0,0.0,,,,,,,,,0.0,training_resp,,181.295482784044,19.204358715796843,2.0,,left,silver,0.0,50.0,2.0,right,2021_Nov_15_1622,habits_v_MRI,5.0,40.0,1.0,5.0,30.0,15.0,5.0,15.0,30.0,30.0,60.0,RR,59.97877050963142,
18.0,0.0,resp1,stim/left_resp_img.png,"[0.5, 0]",left,stim/silver_coin.png,silver,,,,,training,,,silver,deval,,,,,0.0,0.0,0.0,0.0,1.0,0.0,2.0,0.0,,,,,,,,,0.0,training_resp,,181.5285360754933,19.437433121260256,2.0,,left,silver,0.0,50.0,2.0,right,2021_Nov_15_1622,habits_v_MRI,5.0,40.0,1.0,5.0,30.0,15.0,5.0,15.0,30.0,30.0,60.0,RR,59.97877050963142,
18.0,0.0,resp1,stim/left_resp_img.png,"[0.5, 0]",left,stim/silver_coin.png,silver,,,,,training,,,silver,deval,,,,,0.0,0.0,0.0,0.0,1.0,0.0,2.0,0.0,,,,,,,,,0.0,training_resp,,181.79520903737284,19.70408966112882,2.0,,left,silver,0.0,50.0,2.0,right,2021_Nov_15_1622,habits_v_MRI,5.0,40.0,1.0,5.0,30.0,15.0,5.0,15.0,30.0,30.0,60.0,RR,59.97877050963142,
18.0,0.0,resp1,stim/left_resp_img.png,"[0.5, 0]",left,stim/silver_coin.png,silver,,,,,training,,,silver,deval,,,,,0.0,0.0,0.0,0.0,1.0,0.0,2.0,0.0,,,,,,,,,0.0,training_resp,,182.02857141196728,19.93748458614573,2.0,,left,silver,0.0,50.0,2.0,right,2021_Nov_15_1622,habits_v_MRI,5.0,40.0,1.0,5.0,30.0,15.0,5.0,15.0,30.0,30.0,60.0,RR,59.97877050963142,
18.0,0.0,resp1,stim/left_resp_img.png,"[0.5, 0]",left,stim/silver_coin.png,silver,,,,,training,,,silver,deval,,,,,0.0,0.0,0.0,0.0,1.0,0.0,2.0,0.0,,,,,,,,,0.0,training_resp,,182.29533850611188,20.2042235287372,2.0,18.0,left,silver,1.0,50.0,2.0,right,2021_Nov_15_1622,habits_v_MRI,5.0,40.0,1.0,5.0,30.0,15.0,5.0,15.0,30.0,30.0,60.0,RR,59.97877050963142,
18.0,0.0,resp1,stim/left_resp_img.png,"[0.5, 0]",left,stim/silver_coin.png,silver,,,,,training,,,silver,deval,,,,,0.0,0.0,0.0,0.0,1.0,0.0,2.0,0.0,,,,,,,,,0.0,training_resp,,182.76203158474527,20.670967925572768,2.0,,left,silver,0.0,50.0,2.0,right,2021_Nov_15_1622,habits_v_MRI,5.0,40.0,1.0,5.0,30.0,15.0,5.0,15.0,30.0,30.0,60.0,RR,59.97877050963142,
18.0,0.0,resp1,stim/left_resp_img.png,"[0.5, 0]",left,stim/silver_coin.png,silver,,,,,training,,,silver,deval,,,,,0.0,0.0,0.0,0.0,1.0,0.0,2.0,0.0,,,,,,,,,0.0,training_resp,,182.99553413153623,20.90445111808367,2.0,,left,silver,0.0,50.0,2.0,right,2021_Nov_15_1622,habits_v_MRI,5.0,40.0,1.0,5.0,30.0,15.0,5.0,15.0,30.0,30.0,60.0,RR,59.97877050963142,
18.0,0.0,resp1,stim/left_resp_img.png,"[0.5, 0]",left,stim/silver_coin.png,silver,,,,,training,,,silver,deval,,,,,0.0,0.0,0.0,0.0,1.0,0.0,2.0,0.0,,,,,,,,,0.0,training_resp,,183.24551397096369,21.1544277316425,2.0,,left,silver,0.0,50.0,2.0,right,2021_Nov_15_1622,habits_v_MRI,5.0,40.0,1.0,5.0,30.0,15.0,5.0,15.0,30.0,30.0,60.0,RR,59.97877050963142,
18.0,0.0,resp1,stim/left_resp_img.png,"[0.5, 0]",left,stim/silver_coin.png,silver,,,,,training,,,silver,deval,,,,,0.0,0.0,0.0,0.0,1.0,0.0,2.0,0.0,,,,,,,,,0.0,training_resp,,183.4789836741984,21.38791796239093,2.0,,left,silver,0.0,50.0,2.0,right,2021_Nov_15_1622,habits_v_MRI,5.0,40.0,1.0,5.0,30.0,15.0,5.0,15.0,30.0,30.0,60.0,RR,59.97877050963142,
18.0,0.0,resp1,stim/left_resp_img.png,"[0.5, 0]",left,stim/silver_coin.png,silver,,,,,training,,,silver,deval,,,,,0.0,0.0,0.0,0.0,1.0,0.0,2.0,0.0,,,,,,,,,0.0,training_resp,,183.7125041091349,21.6213032102678,2.0,,left,silver,0.0,50.0,2.0,right,2021_Nov_15_1622,habits_v_MRI,5.0,40.0,1.0,5.0,30.0,15.0,5.0,15.0,30.0,30.0,60.0,RR,59.97877050963142,
18.0,0.0,resp1,stim/left_resp_img.png,"[0.5, 0]",left,stim/silver_coin.png,silver,,,,,training,,,silver,deval,,,,,0.0,0.0,0.0,0.0,1.0,0.0,2.0,0.0,,,,,,,,,0.0,training_resp,,183.9790456960909,21.88795476476662,2.0,,left,silver,0.0,50.0,2.0,right,2021_Nov_15_1622,habits_v_MRI,5.0,40.0,1.0,5.0,30.0,15.0,5.0,15.0,30.0,30.0,60.0,RR,59.97877050963142,
18.0,0.0,resp1,stim/left_resp_img.png,"[0.5, 0]",left,stim/silver_coin.png,silver,,,,,training,,,silver,deval,,,,,0.0,0.0,0.0,0.0,1.0,0.0,2.0,0.0,,,,,,,,,0.0,training_resp,,184.2125057221856,22.121421828866005,2.0,,left,silver,0.0,50.0,2.0,right,2021_Nov_15_1622,habits_v_MRI,5.0,40.0,1.0,5.0,30.0,15.0,5.0,15.0,30.0,30.0,60.0,RR,59.97877050963142,
18.0,0.0,resp1,stim/left_resp_img.png,"[0.5, 0]",left,stim/silver_coin.png,silver,,,,,training,,,silver,deval,,,,,0.0,0.0,0.0,0.0,1.0,0.0,2.0,0.0,,,,,,,,,0.0,training_resp,,184.49595274263996,22.404873248189688,2.0,,left,silver,0.0,50.0,2.0,right,2021_Nov_15_1622,habits_v_MRI,5.0,40.0,1.0,5.0,30.0,15.0,5.0,15.0,30.0,30.0,60.0,RR,59.97877050963142,
18.0,0.0,resp1,stim/left_resp_img.png,"[0.5, 0]",left,stim/silver_coin.png,silver,,,,,training,,,silver,deval,,,,,0.0,0.0,0.0,0.0,1.0,0.0,2.0,0.0,,,,,,,,,0.0,training_resp,,184.74600061541423,22.65491408295929,2.0,,left,silver,0.0,50.0,2.0,right,2021_Nov_15_1622,habits_v_MRI,5.0,40.0,1.0,5.0,30.0,15.0,5.0,15.0,30.0,30.0,60.0,RR,59.97877050963142,
18.0,0.0,resp1,stim/left_resp_img.png,"[0.5, 0]",left,stim/silver_coin.png,silver,,,,,training,,,silver,deval,,,,,0.0,0.0,0.0,0.0,1.0,0.0,2.0,0.0,,,,,,,,,0.0,training_resp,,185.012680321699,22.92158939060755,2.0,,left,silver,0.0,50.0,2.0,right,2021_Nov_15_1622,habits_v_MRI,5.0,40.0,1.0,5.0,30.0,15.0,5.0,15.0,30.0,30.0,60.0,RR,59.97877050963142,
18.0,0.0,resp1,stim/left_resp_img.png,"[0.5, 0]",left,stim/silver_coin.png,silver,,,,,training,,,silver,deval,,,,,0.0,0.0,0.0,0.0,1.0,0.0,2.0,0.0,,,,,,,,,0.0,training_resp,,185.26274315011688,23.17166072316468,2.0,,left,silver,0.0,50.0,2.0,right,2021_Nov_15_1622,habits_v_MRI,5.0,40.0,1.0,5.0,30.0,15.0,5.0,15.0,30.0,30.0,60.0,RR,59.97877050963142,
18.0,0.0,resp1,stim/left_resp_img.png,"[0.5, 0]",left,stim/silver_coin.png,silver,,,,,training,,,silver,deval,,,,,0.0,0.0,0.0,0.0,1.0,0.0,2.0,0.0,,,,,,,,,0.0,training_resp,,185.52945687319152,23.43836212996393,2.0,,left,silver,0.0,50.0,2.0,right,2021_Nov_15_1622,habits_v_MRI,5.0,40.0,1.0,5.0,30.0,15.0,5.0,15.0,30.0,30.0,60.0,RR,59.97877050963142,
18.0,0.0,resp1,stim/left_resp_img.png,"[0.5, 0]",left,stim/silver_coin.png,silver,,,,,training,,,silver,deval,,,,,0.0,0.0,0.0,0.0,1.0,0.0,2.0,0.0,,,,,,,,,0.0,training_resp,,185.79634361248463,23.70525062852539,2.0,,left,silver,0.0,50.0,2.0,right,2021_Nov_15_1622,habits_v_MRI,5.0,40.0,1.0,5.0,30.0,15.0,5.0,15.0,30.0,30.0,60.0,RR,59.97877050963142,
18.0,0.0,resp1,stim/left_resp_img.png,"[0.5, 0]",left,stim/silver_coin.png,silver,,,,,training,,,silver,deval,,,,,0.0,0.0,0.0,0.0,1.0,0.0,2.0,0.0,,,,,,,,,0.0,training_resp,,186.0464621577412,23.955315216444436,2.0,,left,silver,0.0,50.0,2.0,right,2021_Nov_15_1622,habits_v_MRI,5.0,40.0,1.0,5.0,30.0,15.0,5.0,15.0,30.0,30.0,60.0,RR,59.97877050963142,
18.0,0.0,resp1,stim/left_resp_img.png,"[0.5, 0]",left,stim/silver_coin.png,silver,,,,,training,,,silver,deval,,,,,0.0,0.0,0.0,0.0,1.0,0.0,2.0,0.0,,,,,,,,,0.0,training_resp,,186.33006694563664,24.23875461239368,2.0,,left,silver,0.0,50.0,2.0,right,2021_Nov_15_1622,habits_v_MRI,5.0,40.0,1.0,5.0,30.0,15.0,5.0,15.0,30.0,30.0,60.0,RR,59.97877050963142,
18.0,0.0,resp1,stim/left_resp_img.png,"[0.5, 0]",left,stim/silver_coin.png,silver,,,,,training,,,silver,deval,,,,,0.0,0.0,0.0,0.0,1.0,0.0,2.0,0.0,,,,,,,,,0.0,training_resp,,186.58020367240533,24.488882541889325,2.0,,left,silver,0.0,50.0,2.0,right,2021_Nov_15_1622,habits_v_MRI,5.0,40.0,1.0,5.0,30.0,15.0,5.0,15.0,30.0,30.0,60.0,RR,59.97877050963142,
18.0,0.0,resp1,stim/left_resp_img.png,"[0.5, 0]",left,stim/silver_coin.png,silver,,,,,training,,,silver,deval,,,,,0.0,0.0,0.0,0.0,1.0,0.0,2.0,0.0,,,,,,,,,0.0,training_resp,,186.8468405646272,24.755664884811267,2.0,,left,silver,0.0,50.0,2.0,right,2021_Nov_15_1622,habits_v_MRI,5.0,40.0,1.0,5.0,30.0,15.0,5.0,15.0,30.0,30.0,60.0,RR,59.97877050963142,
18.0,0.0,resp1,stim/left_resp_img.png,"[0.5, 0]",left,stim/silver_coin.png,silver,,,,,training,,,silver,deval,,,,,0.0,0.0,0.0,0.0,1.0,0.0,2.0,0.0,,,,,,,,,0.0,training_resp,,187.1135059017688,25.02232816931792,2.0,16.0,left,silver,1.0,50.0,2.0,right,2021_Nov_15_1622,habits_v_MRI,5.0,40.0,1.0,5.0,30.0,15.0,5.0,15.0,30.0,30.0,60.0,RR,59.97877050963142,
18.0,0.0,resp1,stim/left_resp_img.png,"[0.5, 0]",left,stim/silver_coin.png,silver,,,,,training,,,silver,deval,,,,,0.0,0.0,0.0,0.0,1.0,0.0,2.0,0.0,,,,,,,,,0.0,training_resp,,187.61368610244244,25.522515114862472,2.0,,left,silver,0.0,50.0,2.0,right,2021_Nov_15_1622,habits_v_MRI,5.0,40.0,1.0,5.0,30.0,15.0,5.0,15.0,30.0,30.0,60.0,RR,59.97877050963142,
18.0,0.0,resp1,stim/left_resp_img.png,"[0.5, 0]",left,stim/silver_coin.png,silver,,,,,training,,,silver,deval,,,,,0.0,0.0,0.0,0.0,1.0,0.0,2.0,0.0,,,,,,,,,0.0,training_resp,,187.9137582122348,25.82258458528668,2.0,,left,silver,0.0,50.0,2.0,right,2021_Nov_15_1622,habits_v_MRI,5.0,40.0,1.0,5.0,30.0,15.0,5.0,15.0,30.0,30.0,60.0,RR,59.97877050963142,
18.0,0.0,resp1,stim/left_resp_img.png,"[0.5, 0]",left,stim/silver_coin.png,silver,,,,,training,,,silver,deval,,,,,0.0,0.0,0.0,0.0,1.0,0.0,2.0,0.0,,,,,,,,,0.0,training_resp,,188.1807118118741,26.089304173365235,2.0,,left,silver,0.0,50.0,2.0,right,2021_Nov_15_1622,habits_v_MRI,5.0,40.0,1.0,5.0,30.0,15.0,5.0,15.0,30.0,30.0,60.0,RR,59.97877050963142,
18.0,0.0,resp1,stim/left_resp_img.png,"[0.5, 0]",left,stim/silver_coin.png,silver,,,,,training,,,silver,deval,,,,,0.0,0.0,0.0,0.0,1.0,0.0,2.0,0.0,,,,,,,,,0.0,training_resp,,188.4640256979037,26.37284415331669,2.0,,left,silver,0.0,50.0,2.0,right,2021_Nov_15_1622,habits_v_MRI,5.0,40.0,1.0,5.0,30.0,15.0,5.0,15.0,30.0,30.0,60.0,RR,59.97877050963142,
18.0,0.0,resp1,stim/left_resp_img.png,"[0.5, 0]",left,stim/silver_coin.png,silver,,,,,training,,,silver,deval,,,,,0.0,0.0,0.0,0.0,1.0,0.0,2.0,0.0,,,,,,,,,0.0,training_resp,,188.747387383366,26.656201733276248,2.0,,left,silver,0.0,50.0,2.0,right,2021_Nov_15_1622,habits_v_MRI,5.0,40.0,1.0,5.0,30.0,15.0,5.0,15.0,30.0,30.0,60.0,RR,59.97877050963142,
18.0,0.0,resp1,stim/left_resp_img.png,"[0.5, 0]",left,stim/silver_coin.png,silver,,,,,training,,,silver,deval,,,,,0.0,0.0,0.0,0.0,1.0,0.0,2.0,0.0,,,,,,,,,0.0,training_resp,,188.99745109141804,26.906267494196072,2.0,,left,silver,0.0,50.0,2.0,right,2021_Nov_15_1622,habits_v_MRI,5.0,40.0,1.0,5.0,30.0,15.0,5.0,15.0,30.0,30.0,60.0,RR,59.97877050963142,
18.0,0.0,resp1,stim/left_resp_img.png,"[0.5, 0]",left,stim/silver_coin.png,silver,,,,,training,,,silver,deval,,,,,0.0,0.0,0.0,0.0,1.0,0.0,2.0,0.0,,,,,,,,,0.0,training_resp,,189.29750795220025,27.206332565750927,2.0,,left,silver,0.0,50.0,2.0,right,2021_Nov_15_1622,habits_v_MRI,5.0,40.0,1.0,5.0,30.0,15.0,5.0,15.0,30.0,30.0,60.0,RR,59.97877050963142,
18.0,0.0,resp1,stim/left_resp_img.png,"[0.5, 0]",left,stim/silver_coin.png,silver,,,,,training,,,silver,deval,,,,,0.0,0.0,0.0,0.0,1.0,0.0,2.0,0.0,,,,,,,,,0.0,training_resp,,189.58102593873627,27.489842927781865,2.0,,left,silver,0.0,50.0,2.0,right,2021_Nov_15_1622,habits_v_MRI,5.0,40.0,1.0,5.0,30.0,15.0,5.0,15.0,30.0,30.0,60.0,RR,59.97877050963142,
18.0,0.0,resp1,stim/left_resp_img.png,"[0.5, 0]",left,stim/silver_coin.png,silver,,,,,training,,,silver,deval,,,,,0.0,0.0,0.0,0.0,1.0,0.0,2.0,0.0,,,,,,,,,0.0,training_resp,,189.8810839725193,27.789905653567985,2.0,,left,silver,0.0,50.0,2.0,right,2021_Nov_15_1622,habits_v_MRI,5.0,40.0,1.0,5.0,30.0,15.0,5.0,15.0,30.0,30.0,60.0,RR,59.97877050963142,
18.0,0.0,resp1,stim/left_resp_img.png,"[0.5, 0]",left,stim/silver_coin.png,silver,,,,,training,,,silver,deval,,,,,0.0,0.0,0.0,0.0,1.0,0.0,2.0,0.0,,,,,,,,,0.0,training_resp,,190.16447732876983,28.073301062453535,2.0,,left,silver,0.0,50.0,2.0,right,2021_Nov_15_1622,habits_v_MRI,5.0,40.0,1.0,5.0,30.0,15.0,5.0,15.0,30.0,30.0,60.0,RR,59.97877050963142,
18.0,0.0,resp1,stim/left_resp_img.png,"[0.5, 0]",left,stim/silver_coin.png,silver,,,,,training,,,silver,deval,,,,,0.0,0.0,0.0,0.0,1.0,0.0,2.0,0.0,,,,,,,,,0.0,training_resp,,190.46454679896124,28.373367600375783,2.0,,left,silver,0.0,50.0,2.0,right,2021_Nov_15_1622,habits_v_MRI,5.0,40.0,1.0,5.0,30.0,15.0,5.0,15.0,30.0,30.0,60.0,RR,59.97877050963142,
18.0,0.0,resp1,stim/left_resp_img.png,"[0.5, 0]",left,stim/silver_coin.png,silver,,,,,training,,,silver,deval,,,,,0.0,0.0,0.0,0.0,1.0,0.0,2.0,0.0,,,,,,,,,0.0,training_resp,,190.73135260189883,28.640166072174907,2.0,,left,silver,0.0,50.0,2.0,right,2021_Nov_15_1622,habits_v_MRI,5.0,40.0,1.0,5.0,30.0,15.0,5.0,15.0,30.0,30.0,60.0,RR,59.97877050963142,
18.0,0.0,resp1,stim/left_resp_img.png,"[0.5, 0]",left,stim/silver_coin.png,silver,,,,,training,,,silver,deval,,,,,0.0,0.0,0.0,0.0,1.0,0.0,2.0,0.0,,,,,,,,,0.0,training_resp,,190.9813913840335,28.890220396220684,2.0,,left,silver,0.0,50.0,2.0,right,2021_Nov_15_1622,habits_v_MRI,5.0,40.0,1.0,5.0,30.0,15.0,5.0,15.0,30.0,30.0,60.0,RR,59.97877050963142,
18.0,0.0,resp1,stim/left_resp_img.png,"[0.5, 0]",left,stim/silver_coin.png,silver,,,,,training,,,silver,deval,,,,,0.0,0.0,0.0,0.0,1.0,0.0,2.0,0.0,,,,,,,,,0.0,training_resp,,191.2481370710302,29.156959631945934,2.0,,left,silver,0.0,50.0,2.0,right,2021_Nov_15_1622,habits_v_MRI,5.0,40.0,1.0,5.0,30.0,15.0,5.0,15.0,30.0,30.0,60.0,RR,59.97877050963142,
18.0,0.0,resp1,stim/left_resp_img.png,"[0.5, 0]",left,stim/silver_coin.png,silver,,,,,training,,,silver,deval,,,,,0.0,0.0,0.0,0.0,1.0,0.0,2.0,0.0,,,,,,,,,0.0,training_resp,,191.5485543331597,29.457100361352783,2.0,,left,silver,0.0,50.0,2.0,right,2021_Nov_15_1622,habits_v_MRI,5.0,40.0,1.0,5.0,30.0,15.0,5.0,15.0,30.0,30.0,60.0,RR,59.97877050963142,
18.0,0.0,resp1,stim/left_resp_img.png,"[0.5, 0]",left,stim/silver_coin.png,silver,,,,,training,,,silver,deval,,,,,0.0,0.0,0.0,0.0,1.0,0.0,2.0,0.0,,,,,,,,,0.0,ITI_start,15.0,191.76641475735232,29.673808322288096,,,,,,50.0,2.0,right,2021_Nov_15_1622,habits_v_MRI,5.0,40.0,1.0,5.0,30.0,15.0,5.0,15.0,30.0,30.0,60.0,RR,59.97877050963142,
18.0,1.0,resp2,stim/right_resp_img.png,"[-0.5, 0]",right,stim/gold_coin.png,silver,,,,,training,,,gold,val,,,,,0.0,0.0,0.0,0.0,1.0,1.0,3.0,1.0,,,,,,,,,0.0,training_period_start,30.0,206.80723776272495,0.0,3.0,13.0,,,,50.0,2.0,right,2021_Nov_15_1622,habits_v_MRI,5.0,40.0,1.0,5.0,30.0,15.0,5.0,15.0,30.0,30.0,60.0,RR,59.97877050963142,
18.0,1.0,resp2,stim/right_resp_img.png,"[-0.5, 0]",right,stim/gold_coin.png,silver,,,,,training,,,gold,val,,,,,0.0,0.0,0.0,0.0,1.0,1.0,3.0,1.0,,,,,,,,,0.0,training_resp,,207.503196839476,0.7150931926444173,3.0,,right,gold,0.0,50.0,2.0,right,2021_Nov_15_1622,habits_v_MRI,5.0,40.0,1.0,5.0,30.0,15.0,5.0,15.0,30.0,30.0,60.0,RR,59.97877050963142,
18.0,1.0,resp2,stim/right_resp_img.png,"[-0.5, 0]",right,stim/gold_coin.png,silver,,,,,training,,,gold,val,,,,,0.0,0.0,0.0,0.0,1.0,1.0,3.0,1.0,,,,,,,,,0.0,training_resp,,207.8533465568908,1.0652775133494288,3.0,,right,gold,0.0,50.0,2.0,right,2021_Nov_15_1622,habits_v_MRI,5.0,40.0,1.0,5.0,30.0,15.0,5.0,15.0,30.0,30.0,60.0,RR,59.97877050963142,
18.0,1.0,resp2,stim/right_resp_img.png,"[-0.5, 0]",right,stim/gold_coin.png,silver,,,,,training,,,gold,val,,,,,0.0,0.0,0.0,0.0,1.0,1.0,3.0,1.0,,,,,,,,,0.0,training_resp,,208.13667129329409,1.3486353866755962,3.0,,right,gold,0.0,50.0,2.0,right,2021_Nov_15_1622,habits_v_MRI,5.0,40.0,1.0,5.0,30.0,15.0,5.0,15.0,30.0,30.0,60.0,RR,59.97877050963142,
18.0,1.0,resp2,stim/right_resp_img.png,"[-0.5, 0]",right,stim/gold_coin.png,silver,,,,,training,,,gold,val,,,,,0.0,0.0,0.0,0.0,1.0,1.0,3.0,1.0,,,,,,,,,0.0,training_resp,,208.4200848834589,1.632023464422673,3.0,,right,gold,0.0,50.0,2.0,right,2021_Nov_15_1622,habits_v_MRI,5.0,40.0,1.0,5.0,30.0,15.0,5.0,15.0,30.0,30.0,60.0,RR,59.97877050963142,
18.0,1.0,resp2,stim/right_resp_img.png,"[-0.5, 0]",right,stim/gold_coin.png,silver,,,,,training,,,gold,val,,,,,0.0,0.0,0.0,0.0,1.0,1.0,3.0,1.0,,,,,,,,,0.0,training_resp,,208.7035277986433,1.9155130058061327,3.0,,right,gold,0.0,50.0,2.0,right,2021_Nov_15_1622,habits_v_MRI,5.0,40.0,1.0,5.0,30.0,15.0,5.0,15.0,30.0,30.0,60.0,RR,59.97877050963142,
18.0,1.0,resp2,stim/right_resp_img.png,"[-0.5, 0]",right,stim/gold_coin.png,silver,,,,,training,,,gold,val,,,,,0.0,0.0,0.0,0.0,1.0,1.0,3.0,1.0,,,,,,,,,0.0,training_resp,,208.97030662279576,2.182254294399172,3.0,,right,gold,0.0,50.0,2.0,right,2021_Nov_15_1622,habits_v_MRI,5.0,40.0,1.0,5.0,30.0,15.0,5.0,15.0,30.0,30.0,60.0,RR,59.97877050963142,
18.0,1.0,resp2,stim/right_resp_img.png,"[-0.5, 0]",right,stim/gold_coin.png,silver,,,,,training,,,gold,val,,,,,0.0,0.0,0.0,0.0,1.0,1.0,3.0,1.0,,,,,,,,,0.0,training_resp,,209.25368912890556,2.465659087290988,3.0,,right,gold,0.0,50.0,2.0,right,2021_Nov_15_1622,habits_v_MRI,5.0,40.0,1.0,5.0,30.0,15.0,5.0,15.0,30.0,30.0,60.0,RR,59.97877050963142,
18.0,1.0,resp2,stim/right_resp_img.png,"[-0.5, 0]",right,stim/gold_coin.png,silver,,,,,training,,,gold,val,,,,,0.0,0.0,0.0,0.0,1.0,1.0,3.0,1.0,,,,,,,,,0.0,training_resp,,209.5537301541772,2.7656877962872386,3.0,,right,gold,0.0,50.0,2.0,right,2021_Nov_15_1622,habits_v_MRI,5.0,40.0,1.0,5.0,30.0,15.0,5.0,15.0,30.0,30.0,60.0,RR,59.97877050963142,
18.0,1.0,resp2,stim/right_resp_img.png,"[-0.5, 0]",right,stim/gold_coin.png,silver,,,,,training,,,gold,val,,,,,0.0,0.0,0.0,0.0,1.0,1.0,3.0,1.0,,,,,,,,,0.0,training_resp,,209.85380812874064,3.0657816061284398,3.0,,right,gold,0.0,50.0,2.0,right,2021_Nov_15_1622,habits_v_MRI,5.0,40.0,1.0,5.0,30.0,15.0,5.0,15.0,30.0,30.0,60.0,RR,59.97877050963142,
18.0,1.0,resp2,stim/right_resp_img.png,"[-0.5, 0]",right,stim/gold_coin.png,silver,,,,,training,,,gold,val,,,,,0.0,0.0,0.0,0.0,1.0,1.0,3.0,1.0,,,,,,,,,0.0,training_resp,,210.1205461914651,3.3325337446294725,3.0,,right,gold,0.0,50.0,2.0,right,2021_Nov_15_1622,habits_v_MRI,5.0,40.0,1.0,5.0,30.0,15.0,5.0,15.0,30.0,30.0,60.0,RR,59.97877050963142,
18.0,1.0,resp2,stim/right_resp_img.png,"[-0.5, 0]",right,stim/gold_coin.png,silver,,,,,training,,,gold,val,,,,,0.0,0.0,0.0,0.0,1.0,1.0,3.0,1.0,,,,,,,,,0.0,training_resp,,210.40399731742215,3.615969328675419,3.0,,right,gold,0.0,50.0,2.0,right,2021_Nov_15_1622,habits_v_MRI,5.0,40.0,1.0,5.0,30.0,15.0,5.0,15.0,30.0,30.0,60.0,RR,59.97877050963142,
18.0,1.0,resp2,stim/right_resp_img.png,"[-0.5, 0]",right,stim/gold_coin.png,silver,,,,,training,,,gold,val,,,,,0.0,0.0,0.0,0.0,1.0,1.0,3.0,1.0,,,,,,,,,0.0,training_resp,,210.6707333275117,3.882695074891672,3.0,,right,gold,0.0,50.0,2.0,right,2021_Nov_15_1622,habits_v_MRI,5.0,40.0,1.0,5.0,30.0,15.0,5.0,15.0,30.0,30.0,60.0,RR,59.97877050963142,
18.0,1.0,resp2,stim/right_resp_img.png,"[-0.5, 0]",right,stim/gold_coin.png,silver,,,,,training,,,gold,val,,,,,0.0,0.0,0.0,0.0,1.0,1.0,3.0,1.0,,,,,,,,,0.0,training_resp,,210.9542255080305,4.166183443274349,3.0,21.0,right,gold,1.0,50.0,2.0,right,2021_Nov_15_1622,habits_v_MRI,5.0,40.0,1.0,5.0,30.0,15.0,5.0,15.0,30.0,30.0,60.0,RR,59.97877050963142,
18.0,1.0,resp2,stim/right_resp_img.png,"[-0.5, 0]",right,stim/gold_coin.png,silver,,,,,training,,,gold,val,,,,,0.0,0.0,0.0,0.0,1.0,1.0,3.0,1.0,,,,,,,,,0.0,training_resp,,211.53763672313653,4.749626035802066,3.0,,left,,,50.0,2.0,right,2021_Nov_15_1622,habits_v_MRI,5.0,40.0,1.0,5.0,30.0,15.0,5.0,15.0,30.0,30.0,60.0,RR,59.97877050963142,
18.0,1.0,resp2,stim/right_resp_img.png,"[-0.5, 0]",right,stim/gold_coin.png,silver,,,,,training,,,gold,val,,,,,0.0,0.0,0.0,0.0,1.0,1.0,3.0,1.0,,,,,,,,,0.0,training_resp,,211.58764483151023,4.799617135897279,3.0,,right,gold,0.0,50.0,2.0,right,2021_Nov_15_1622,habits_v_MRI,5.0,40.0,1.0,5.0,30.0,15.0,5.0,15.0,30.0,30.0,60.0,RR,59.97877050963142,
18.0,1.0,resp2,stim/right_resp_img.png,"[-0.5, 0]",right,stim/gold_coin.png,silver,,,,,training,,,gold,val,,,,,0.0,0.0,0.0,0.0,1.0,1.0,3.0,1.0,,,,,,,,,0.0,training_resp,,211.90450947452337,5.116472394904122,3.0,,right,gold,0.0,50.0,2.0,right,2021_Nov_15_1622,habits_v_MRI,5.0,40.0,1.0,5.0,30.0,15.0,5.0,15.0,30.0,30.0,60.0,RR,59.97877050963142,
18.0,1.0,resp2,stim/right_resp_img.png,"[-0.5, 0]",right,stim/gold_coin.png,silver,,,,,training,,,gold,val,,,,,0.0,0.0,0.0,0.0,1.0,1.0,3.0,1.0,,,,,,,,,0.0,training_resp,,212.18780928477645,5.399794785305858,3.0,,right,gold,0.0,50.0,2.0,right,2021_Nov_15_1622,habits_v_MRI,5.0,40.0,1.0,5.0,30.0,15.0,5.0,15.0,30.0,30.0,60.0,RR,59.97877050963142,
18.0,1.0,resp2,stim/right_resp_img.png,"[-0.5, 0]",right,stim/gold_coin.png,silver,,,,,training,,,gold,val,,,,,0.0,0.0,0.0,0.0,1.0,1.0,3.0,1.0,,,,,,,,,0.0,training_resp,,212.47136422037147,5.6833289002534,3.0,,right,gold,0.0,50.0,2.0,right,2021_Nov_15_1622,habits_v_MRI,5.0,40.0,1.0,5.0,30.0,15.0,5.0,15.0,30.0,30.0,60.0,RR,59.97877050963142,
18.0,1.0,resp2,stim/right_resp_img.png,"[-0.5, 0]",right,stim/gold_coin.png,silver,,,,,training,,,gold,val,,,,,0.0,0.0,0.0,0.0,1.0,1.0,3.0,1.0,,,,,,,,,0.0,training_resp,,212.7714641885832,5.983415085822344,3.0,,right,gold,0.0,50.0,2.0,right,2021_Nov_15_1622,habits_v_MRI,5.0,40.0,1.0,5.0,30.0,15.0,5.0,15.0,30.0,30.0,60.0,RR,59.97877050963142,
18.0,1.0,resp2,stim/right_resp_img.png,"[-0.5, 0]",right,stim/gold_coin.png,silver,,,,,training,,,gold,val,,,,,0.0,0.0,0.0,0.0,1.0,1.0,3.0,1.0,,,,,,,,,0.0,training_resp,,213.02148156357,6.233473515370861,3.0,,right,gold,0.0,50.0,2.0,right,2021_Nov_15_1622,habits_v_MRI,5.0,40.0,1.0,5.0,30.0,15.0,5.0,15.0,30.0,30.0,60.0,RR,59.97877050963142,
18.0,1.0,resp2,stim/right_resp_img.png,"[-0.5, 0]",right,stim/gold_coin.png,silver,,,,,training,,,gold,val,,,,,0.0,0.0,0.0,0.0,1.0,1.0,3.0,1.0,,,,,,,,,0.0,training_resp,,213.28826801199463,6.500200141454116,3.0,,right,gold,0.0,50.0,2.0,right,2021_Nov_15_1622,habits_v_MRI,5.0,40.0,1.0,5.0,30.0,15.0,5.0,15.0,30.0,30.0,60.0,RR,59.97877050963142,
18.0,1.0,resp2,stim/right_resp_img.png,"[-0.5, 0]",right,stim/gold_coin.png,silver,,,,,training,,,gold,val,,,,,0.0,0.0,0.0,0.0,1.0,1.0,3.0,1.0,,,,,,,,,0.0,training_resp,,213.52164475573227,6.733586855698377,3.0,,right,gold,0.0,50.0,2.0,right,2021_Nov_15_1622,habits_v_MRI,5.0,40.0,1.0,5.0,30.0,15.0,5.0,15.0,30.0,30.0,60.0,RR,59.97877050963142,
18.0,1.0,resp2,stim/right_resp_img.png,"[-0.5, 0]",right,stim/gold_coin.png,silver,,,,,training,,,gold,val,,,,,0.0,0.0,0.0,0.0,1.0,1.0,3.0,1.0,,,,,,,,,0.0,training_resp,,213.78841507574543,7.000398816773668,3.0,,right,gold,0.0,50.0,2.0,right,2021_Nov_15_1622,habits_v_MRI,5.0,40.0,1.0,5.0,30.0,15.0,5.0,15.0,30.0,30.0,60.0,RR,59.97877050963142,
18.0,1.0,resp2,stim/right_resp_img.png,"[-0.5, 0]",right,stim/gold_coin.png,silver,,,,,training,,,gold,val,,,,,0.0,0.0,0.0,0.0,1.0,1.0,3.0,1.0,,,,,,,,,0.0,training_resp,,214.03843802236952,7.250419710529968,3.0,,right,gold,0.0,50.0,2.0,right,2021_Nov_15_1622,habits_v_MRI,5.0,40.0,1.0,5.0,30.0,15.0,5.0,15.0,30.0,30.0,60.0,RR,59.97877050963142,
18.0,1.0,resp2,stim/right_resp_img.png,"[-0.5, 0]",right,stim/gold_coin.png,silver,,,,,training,,,gold,val,,,,,0.0,0.0,0.0,0.0,1.0,1.0,3.0,1.0,,,,,,,,,0.0,training_resp,,214.28848237614147,7.500467583304271,3.0,,right,gold,0.0,50.0,2.0,right,2021_Nov_15_1622,habits_v_MRI,5.0,40.0,1.0,5.0,30.0,15.0,5.0,15.0,30.0,30.0,60.0,RR,59.97877050963142,
18.0,1.0,resp2,stim/right_resp_img.png,"[-0.5, 0]",right,stim/gold_coin.png,silver,,,,,training,,,gold,val,,,,,0.0,0.0,0.0,0.0,1.0,1.0,3.0,1.0,,,,,,,,,0.0,training_resp,,214.55521428049545,7.767162245465442,3.0,,right,gold,0.0,50.0,2.0,right,2021_Nov_15_1622,habits_v_MRI,5.0,40.0,1.0,5.0,30.0,15.0,5.0,15.0,30.0,30.0,60.0,RR,59.97877050963142,
18.0,1.0,resp2,stim/right_resp_img.png,"[-0.5, 0]",right,stim/gold_coin.png,silver,,,,,training,,,gold,val,,,,,0.0,0.0,0.0,0.0,1.0,1.0,3.0,1.0,,,,,,,,,0.0,training_resp,,214.8221168552991,8.033884765813127,3.0,,right,gold,0.0,50.0,2.0,right,2021_Nov_15_1622,habits_v_MRI,5.0,40.0,1.0,5.0,30.0,15.0,5.0,15.0,30.0,30.0,60.0,RR,59.97877050963142,
18.0,1.0,resp2,stim/right_resp_img.png,"[-0.5, 0]",right,stim/gold_coin.png,silver,,,,,training,,,gold,val,,,,,0.0,0.0,0.0,0.0,1.0,1.0,3.0,1.0,,,,,,,,,0.0,training_resp,,215.0721808564849,8.283977212151513,3.0,,right,gold,0.0,50.0,2.0,right,2021_Nov_15_1622,habits_v_MRI,5.0,40.0,1.0,5.0,30.0,15.0,5.0,15.0,30.0,30.0,60.0,RR,59.97877050963142,
18.0,1.0,resp2,stim/right_resp_img.png,"[-0.5, 0]",right,stim/gold_coin.png,silver,,,,,training,,,gold,val,,,,,0.0,0.0,0.0,0.0,1.0,1.0,3.0,1.0,,,,,,,,,0.0,training_resp,,215.3387602721341,8.550750464666635,3.0,,right,gold,0.0,50.0,2.0,right,2021_Nov_15_1622,habits_v_MRI,5.0,40.0,1.0,5.0,30.0,15.0,5.0,15.0,30.0,30.0,60.0,RR,59.97877050963142,
18.0,1.0,resp2,stim/right_resp_img.png,"[-0.5, 0]",right,stim/gold_coin.png,silver,,,,,training,,,gold,val,,,,,0.0,0.0,0.0,0.0,1.0,1.0,3.0,1.0,,,,,,,,,0.0,training_resp,,215.60549481585625,8.817470052745193,3.0,,right,gold,0.0,50.0,2.0,right,2021_Nov_15_1622,habits_v_MRI,5.0,40.0,1.0,5.0,30.0,15.0,5.0,15.0,30.0,30.0,60.0,RR,59.97877050963142,
18.0,1.0,resp2,stim/right_resp_img.png,"[-0.5, 0]",right,stim/gold_coin.png,silver,,,,,training,,,gold,val,,,,,0.0,0.0,0.0,0.0,1.0,1.0,3.0,1.0,,,,,,,,,0.0,training_resp,,215.8388991248794,9.050896355416626,3.0,,right,gold,0.0,50.0,2.0,right,2021_Nov_15_1622,habits_v_MRI,5.0,40.0,1.0,5.0,30.0,15.0,5.0,15.0,30.0,30.0,60.0,RR,59.97877050963142,
18.0,1.0,resp2,stim/right_resp_img.png,"[-0.5, 0]",right,stim/gold_coin.png,silver,,,,,training,,,gold,val,,,,,0.0,0.0,0.0,0.0,1.0,1.0,3.0,1.0,,,,,,,,,0.0,training_resp,,216.1223872001283,9.334324901225044,3.0,,right,gold,0.0,50.0,2.0,right,2021_Nov_15_1622,habits_v_MRI,5.0,40.0,1.0,5.0,30.0,15.0,5.0,15.0,30.0,30.0,60.0,RR,59.97877050963142,
18.0,1.0,resp2,stim/right_resp_img.png,"[-0.5, 0]",right,stim/gold_coin.png,silver,,,,,training,,,gold,val,,,,,0.0,0.0,0.0,0.0,1.0,1.0,3.0,1.0,,,,,,,,,0.0,training_resp,,216.3724919629749,9.584485381143168,3.0,,right,gold,0.0,50.0,2.0,right,2021_Nov_15_1622,habits_v_MRI,5.0,40.0,1.0,5.0,30.0,15.0,5.0,15.0,30.0,30.0,60.0,RR,59.97877050963142,
18.0,1.0,resp2,stim/right_resp_img.png,"[-0.5, 0]",right,stim/gold_coin.png,silver,,,,,training,,,gold,val,,,,,0.0,0.0,0.0,0.0,1.0,1.0,3.0,1.0,,,,,,,,,0.0,training_resp,,216.67256436566825,9.884515849640591,3.0,,right,gold,0.0,50.0,2.0,right,2021_Nov_15_1622,habits_v_MRI,5.0,40.0,1.0,5.0,30.0,15.0,5.0,15.0,30.0,30.0,60.0,RR,59.97877050963142,
18.0,1.0,resp2,stim/right_resp_img.png,"[-0.5, 0]",right,stim/gold_coin.png,silver,,,,,training,,,gold,val,,,,,0.0,0.0,0.0,0.0,1.0,1.0,3.0,1.0,,,,,,,,,0.0,training_resp,,216.9392830741126,10.151243061991408,3.0,5.0,right,gold,1.0,50.0,2.0,right,2021_Nov_15_1622,habits_v_MRI,5.0,40.0,1.0,5.0,30.0,15.0,5.0,15.0,30.0,30.0,60.0,RR,59.97877050963142,
18.0,1.0,resp2,stim/right_resp_img.png,"[-0.5, 0]",right,stim/gold_coin.png,silver,,,,,training,,,gold,val,,,,,0.0,0.0,0.0,0.0,1.0,1.0,3.0,1.0,,,,,,,,,0.0,training_resp,,217.65617856686004,10.868105710949749,3.0,,right,gold,0.0,50.0,2.0,right,2021_Nov_15_1622,habits_v_MRI,5.0,40.0,1.0,5.0,30.0,15.0,5.0,15.0,30.0,30.0,60.0,RR,59.97877050963142,
18.0,1.0,resp2,stim/right_resp_img.png,"[-0.5, 0]",right,stim/gold_coin.png,silver,,,,,training,,,gold,val,,,,,0.0,0.0,0.0,0.0,1.0,1.0,3.0,1.0,,,,,,,,,0.0,training_resp,,217.92285006237216,11.134836149169132,3.0,,right,gold,0.0,50.0,2.0,right,2021_Nov_15_1622,habits_v_MRI,5.0,40.0,1.0,5.0,30.0,15.0,5.0,15.0,30.0,30.0,60.0,RR,59.97877050963142,
18.0,1.0,resp2,stim/right_resp_img.png,"[-0.5, 0]",right,stim/gold_coin.png,silver,,,,,training,,,gold,val,,,,,0.0,0.0,0.0,0.0,1.0,1.0,3.0,1.0,,,,,,,,,0.0,training_resp,,218.2063064668328,11.41827231971547,3.0,,right,gold,0.0,50.0,2.0,right,2021_Nov_15_1622,habits_v_MRI,5.0,40.0,1.0,5.0,30.0,15.0,5.0,15.0,30.0,30.0,60.0,RR,59.97877050963142,
18.0,1.0,resp2,stim/right_resp_img.png,"[-0.5, 0]",right,stim/gold_coin.png,silver,,,,,training,,,gold,val,,,,,0.0,0.0,0.0,0.0,1.0,1.0,3.0,1.0,,,,,,,,,0.0,training_resp,,218.45671415422112,11.66869672224857,3.0,,right,gold,0.0,50.0,2.0,right,2021_Nov_15_1622,habits_v_MRI,5.0,40.0,1.0,5.0,30.0,15.0,5.0,15.0,30.0,30.0,60.0,RR,59.97877050963142,
18.0,1.0,resp2,stim/right_resp_img.png,"[-0.5, 0]",right,stim/gold_coin.png,silver,,,,,training,,,gold,val,,,,,0.0,0.0,0.0,0.0,1.0,1.0,3.0,1.0,,,,,,,,,0.0,training_resp,,218.7068397377152,11.918777438811958,3.0,10.0,right,gold,1.0,50.0,2.0,right,2021_Nov_15_1622,habits_v_MRI,5.0,40.0,1.0,5.0,30.0,15.0,5.0,15.0,30.0,30.0,60.0,RR,59.97877050963142,
18.0,1.0,resp2,stim/right_resp_img.png,"[-0.5, 0]",right,stim/gold_coin.png,silver,,,,,training,,,gold,val,,,,,0.0,0.0,0.0,0.0,1.0,1.0,3.0,1.0,,,,,,,,,0.0,training_resp,,219.2570512131788,12.468865750357509,3.0,,right,gold,0.0,50.0,2.0,right,2021_Nov_15_1622,habits_v_MRI,5.0,40.0,1.0,5.0,30.0,15.0,5.0,15.0,30.0,30.0,60.0,RR,59.97877050963142,
18.0,1.0,resp2,stim/right_resp_img.png,"[-0.5, 0]",right,stim/gold_coin.png,silver,,,,,training,,,gold,val,,,,,0.0,0.0,0.0,0.0,1.0,1.0,3.0,1.0,,,,,,,,,0.0,training_resp,,219.5242086199578,12.735668620793149,3.0,,right,gold,0.0,50.0,2.0,right,2021_Nov_15_1622,habits_v_MRI,5.0,40.0,1.0,5.0,30.0,15.0,5.0,15.0,30.0,30.0,60.0,RR,59.97877050963142,
18.0,1.0,resp2,stim/right_resp_img.png,"[-0.5, 0]",right,stim/gold_coin.png,silver,,,,,training,,,gold,val,,,,,0.0,0.0,0.0,0.0,1.0,1.0,3.0,1.0,,,,,,,,,0.0,training_resp,,219.7904352587648,13.002394660143182,3.0,,right,gold,0.0,50.0,2.0,right,2021_Nov_15_1622,habits_v_MRI,5.0,40.0,1.0,5.0,30.0,15.0,5.0,15.0,30.0,30.0,60.0,RR,59.97877050963142,
18.0,1.0,resp2,stim/right_resp_img.png,"[-0.5, 0]",right,stim/gold_coin.png,silver,,,,,training,,,gold,val,,,,,0.0,0.0,0.0,0.0,1.0,1.0,3.0,1.0,,,,,,,,,0.0,training_resp,,220.04052213346583,13.25248388084583,3.0,,right,gold,0.0,50.0,2.0,right,2021_Nov_15_1622,habits_v_MRI,5.0,40.0,1.0,5.0,30.0,15.0,5.0,15.0,30.0,30.0,60.0,RR,59.97877050963142,
18.0,1.0,resp2,stim/right_resp_img.png,"[-0.5, 0]",right,stim/gold_coin.png,silver,,,,,training,,,gold,val,,,,,0.0,0.0,0.0,0.0,1.0,1.0,3.0,1.0,,,,,,,,,0.0,training_resp,,220.2905694195069,13.502524129115043,3.0,,right,gold,0.0,50.0,2.0,right,2021_Nov_15_1622,habits_v_MRI,5.0,40.0,1.0,5.0,30.0,15.0,5.0,15.0,30.0,30.0,60.0,RR,59.97877050963142,
18.0,1.0,resp2,stim/right_resp_img.png,"[-0.5, 0]",right,stim/gold_coin.png,silver,,,,,training,,,gold,val,,,,,0.0,0.0,0.0,0.0,1.0,1.0,3.0,1.0,,,,,,,,,0.0,training_resp,,220.5243836888112,13.735936942277476,3.0,,right,gold,0.0,50.0,2.0,right,2021_Nov_15_1622,habits_v_MRI,5.0,40.0,1.0,5.0,30.0,15.0,5.0,15.0,30.0,30.0,60.0,RR,59.97877050963142,
18.0,1.0,resp2,stim/right_resp_img.png,"[-0.5, 0]",right,stim/gold_coin.png,silver,,,,,training,,,gold,val,,,,,0.0,0.0,0.0,0.0,1.0,1.0,3.0,1.0,,,,,,,,,0.0,training_resp,,220.79081648075956,14.002731601707636,3.0,,right,gold,0.0,50.0,2.0,right,2021_Nov_15_1622,habits_v_MRI,5.0,40.0,1.0,5.0,30.0,15.0,5.0,15.0,30.0,30.0,60.0,RR,59.97877050963142,
18.0,1.0,resp2,stim/right_resp_img.png,"[-0.5, 0]",right,stim/gold_coin.png,silver,,,,,training,,,gold,val,,,,,0.0,0.0,0.0,0.0,1.0,1.0,3.0,1.0,,,,,,,,,0.0,training_resp,,221.04086259403263,14.252743698190898,3.0,,right,gold,0.0,50.0,2.0,right,2021_Nov_15_1622,habits_v_MRI,5.0,40.0,1.0,5.0,30.0,15.0,5.0,15.0,30.0,30.0,60.0,RR,59.97877050963142,
18.0,1.0,resp2,stim/right_resp_img.png,"[-0.5, 0]",right,stim/gold_coin.png,silver,,,,,training,,,gold,val,,,,,0.0,0.0,0.0,0.0,1.0,1.0,3.0,1.0,,,,,,,,,0.0,training_resp,,221.3076727956068,14.519575600279495,3.0,,right,gold,0.0,50.0,2.0,right,2021_Nov_15_1622,habits_v_MRI,5.0,40.0,1.0,5.0,30.0,15.0,5.0,15.0,30.0,30.0,60.0,RR,59.97877050963142,
18.0,1.0,resp2,stim/right_resp_img.png,"[-0.5, 0]",right,stim/gold_coin.png,silver,,,,,training,,,gold,val,,,,,0.0,0.0,0.0,0.0,1.0,1.0,3.0,1.0,,,,,,,,,0.0,training_resp,,221.57439121068452,14.786305158631876,3.0,7.0,right,gold,1.0,50.0,2.0,right,2021_Nov_15_1622,habits_v_MRI,5.0,40.0,1.0,5.0,30.0,15.0,5.0,15.0,30.0,30.0,60.0,RR,59.97877050963142,
18.0,1.0,resp2,stim/right_resp_img.png,"[-0.5, 0]",right,stim/gold_coin.png,silver,,,,,training,,,gold,val,,,,,0.0,0.0,0.0,0.0,1.0,1.0,3.0,1.0,,,,,,,,,0.0,training_resp,,222.10783595847897,15.319755478296427,3.0,,right,gold,0.0,50.0,2.0,right,2021_Nov_15_1622,habits_v_MRI,5.0,40.0,1.0,5.0,30.0,15.0,5.0,15.0,30.0,30.0,60.0,RR,59.97877050963142,
18.0,1.0,resp2,stim/right_resp_img.png,"[-0.5, 0]",right,stim/gold_coin.png,silver,,,,,training,,,gold,val,,,,,0.0,0.0,0.0,0.0,1.0,1.0,3.0,1.0,,,,,,,,,0.0,training_resp,,222.37460129335523,15.586543979588896,3.0,,right,gold,0.0,50.0,2.0,right,2021_Nov_15_1622,habits_v_MRI,5.0,40.0,1.0,5.0,30.0,15.0,5.0,15.0,30.0,30.0,60.0,RR,59.97877050963142,
18.0,1.0,resp2,stim/right_resp_img.png,"[-0.5, 0]",right,stim/gold_coin.png,silver,,,,,training,,,gold,val,,,,,0.0,0.0,0.0,0.0,1.0,1.0,3.0,1.0,,,,,,,,,0.0,training_resp,,222.62477027717975,15.836681879358366,3.0,,right,gold,0.0,50.0,2.0,right,2021_Nov_15_1622,habits_v_MRI,5.0,40.0,1.0,5.0,30.0,15.0,5.0,15.0,30.0,30.0,60.0,RR,59.97877050963142,
18.0,1.0,resp2,stim/right_resp_img.png,"[-0.5, 0]",right,stim/gold_coin.png,silver,,,,,training,,,gold,val,,,,,0.0,0.0,0.0,0.0,1.0,1.0,3.0,1.0,,,,,,,,,0.0,training_resp,,222.8919402936008,16.10334252472967,3.0,,right,gold,0.0,50.0,2.0,right,2021_Nov_15_1622,habits_v_MRI,5.0,40.0,1.0,5.0,30.0,15.0,5.0,15.0,30.0,30.0,60.0,RR,59.97877050963142,
18.0,1.0,resp2,stim/right_resp_img.png,"[-0.5, 0]",right,stim/gold_coin.png,silver,,,,,training,,,gold,val,,,,,0.0,0.0,0.0,0.0,1.0,1.0,3.0,1.0,,,,,,,,,0.0,training_resp,,223.158179248916,16.370057127438486,3.0,,right,gold,0.0,50.0,2.0,right,2021_Nov_15_1622,habits_v_MRI,5.0,40.0,1.0,5.0,30.0,15.0,5.0,15.0,30.0,30.0,60.0,RR,59.97877050963142,
18.0,1.0,resp2,stim/right_resp_img.png,"[-0.5, 0]",right,stim/gold_coin.png,silver,,,,,training,,,gold,val,,,,,0.0,0.0,0.0,0.0,1.0,1.0,3.0,1.0,,,,,,,,,0.0,training_resp,,223.40823621232997,16.62017127405852,3.0,,right,gold,0.0,50.0,2.0,right,2021_Nov_15_1622,habits_v_MRI,5.0,40.0,1.0,5.0,30.0,15.0,5.0,15.0,30.0,30.0,60.0,RR,59.97877050963142,
18.0,1.0,resp2,stim/right_resp_img.png,"[-0.5, 0]",right,stim/gold_coin.png,silver,,,,,training,,,gold,val,,,,,0.0,0.0,0.0,0.0,1.0,1.0,3.0,1.0,,,,,,,,,0.0,training_resp,,223.65832074079665,16.87022677133791,3.0,15.0,right,gold,1.0,50.0,2.0,right,2021_Nov_15_1622,habits_v_MRI,5.0,40.0,1.0,5.0,30.0,15.0,5.0,15.0,30.0,30.0,60.0,RR,59.97877050963142,
18.0,1.0,resp2,stim/right_resp_img.png,"[-0.5, 0]",right,stim/gold_coin.png,silver,,,,,training,,,gold,val,,,,,0.0,0.0,0.0,0.0,1.0,1.0,3.0,1.0,,,,,,,,,0.0,training_resp,,224.15851325797848,17.370422807289287,3.0,,right,gold,0.0,50.0,2.0,right,2021_Nov_15_1622,habits_v_MRI,5.0,40.0,1.0,5.0,30.0,15.0,5.0,15.0,30.0,30.0,60.0,RR,59.97877050963142,
18.0,1.0,resp2,stim/right_resp_img.png,"[-0.5, 0]",right,stim/gold_coin.png,silver,,,,,training,,,gold,val,,,,,0.0,0.0,0.0,0.0,1.0,1.0,3.0,1.0,,,,,,,,,0.0,training_resp,,224.4086294574663,17.620542232412845,3.0,,right,gold,0.0,50.0,2.0,right,2021_Nov_15_1622,habits_v_MRI,5.0,40.0,1.0,5.0,30.0,15.0,5.0,15.0,30.0,30.0,60.0,RR,59.97877050963142,
18.0,1.0,resp2,stim/right_resp_img.png,"[-0.5, 0]",right,stim/gold_coin.png,silver,,,,,training,,,gold,val,,,,,0.0,0.0,0.0,0.0,1.0,1.0,3.0,1.0,,,,,,,,,0.0,training_resp,,224.6587318740785,17.870624415110797,3.0,,right,gold,0.0,50.0,2.0,right,2021_Nov_15_1622,habits_v_MRI,5.0,40.0,1.0,5.0,30.0,15.0,5.0,15.0,30.0,30.0,60.0,RR,59.97877050963142,
18.0,1.0,resp2,stim/right_resp_img.png,"[-0.5, 0]",right,stim/gold_coin.png,silver,,,,,training,,,gold,val,,,,,0.0,0.0,0.0,0.0,1.0,1.0,3.0,1.0,,,,,,,,,0.0,training_resp,,224.9254441310186,18.13735514669679,3.0,,right,gold,0.0,50.0,2.0,right,2021_Nov_15_1622,habits_v_MRI,5.0,40.0,1.0,5.0,30.0,15.0,5.0,15.0,30.0,30.0,60.0,RR,59.97877050963142,
18.0,1.0,resp2,stim/right_resp_img.png,"[-0.5, 0]",right,stim/gold_coin.png,silver,,,,,training,,,gold,val,,,,,0.0,0.0,0.0,0.0,1.0,1.0,3.0,1.0,,,,,,,,,0.0,training_resp,,225.17545124236491,18.387385424459357,3.0,,right,gold,0.0,50.0,2.0,right,2021_Nov_15_1622,habits_v_MRI,5.0,40.0,1.0,5.0,30.0,15.0,5.0,15.0,30.0,30.0,60.0,RR,59.97877050963142,
18.0,1.0,resp2,stim/right_resp_img.png,"[-0.5, 0]",right,stim/gold_coin.png,silver,,,,,training,,,gold,val,,,,,0.0,0.0,0.0,0.0,1.0,1.0,3.0,1.0,,,,,,,,,0.0,training_resp,,225.4255445683375,18.63747405842878,3.0,,right,gold,0.0,50.0,2.0,right,2021_Nov_15_1622,habits_v_MRI,5.0,40.0,1.0,5.0,30.0,15.0,5.0,15.0,30.0,30.0,60.0,RR,59.97877050963142,
18.0,1.0,resp2,stim/right_resp_img.png,"[-0.5, 0]",right,stim/gold_coin.png,silver,,,,,training,,,gold,val,,,,,0.0,0.0,0.0,0.0,1.0,1.0,3.0,1.0,,,,,,,,,0.0,training_resp,,225.6922978798393,18.904221798293293,3.0,,right,gold,0.0,50.0,2.0,right,2021_Nov_15_1622,habits_v_MRI,5.0,40.0,1.0,5.0,30.0,15.0,5.0,15.0,30.0,30.0,60.0,RR,59.97877050963142,
18.0,1.0,resp2,stim/right_resp_img.png,"[-0.5, 0]",right,stim/gold_coin.png,silver,,,,,training,,,gold,val,,,,,0.0,0.0,0.0,0.0,1.0,1.0,3.0,1.0,,,,,,,,,0.0,training_resp,,225.9591687838547,19.17095428938046,3.0,,right,gold,0.0,50.0,2.0,right,2021_Nov_15_1622,habits_v_MRI,5.0,40.0,1.0,5.0,30.0,15.0,5.0,15.0,30.0,30.0,60.0,RR,59.97877050963142,
18.0,1.0,resp2,stim/right_resp_img.png,"[-0.5, 0]",right,stim/gold_coin.png,silver,,,,,training,,,gold,val,,,,,0.0,0.0,0.0,0.0,1.0,1.0,3.0,1.0,,,,,,,,,0.0,training_resp,,226.20973511831835,19.421681030420583,3.0,,right,gold,0.0,50.0,2.0,right,2021_Nov_15_1622,habits_v_MRI,5.0,40.0,1.0,5.0,30.0,15.0,5.0,15.0,30.0,30.0,60.0,RR,59.97877050963142,
18.0,1.0,resp2,stim/right_resp_img.png,"[-0.5, 0]",right,stim/gold_coin.png,silver,,,,,training,,,gold,val,,,,,0.0,0.0,0.0,0.0,1.0,1.0,3.0,1.0,,,,,,,,,0.0,training_resp,,226.47639371082187,19.68835047306493,3.0,,right,gold,0.0,50.0,2.0,right,2021_Nov_15_1622,habits_v_MRI,5.0,40.0,1.0,5.0,30.0,15.0,5.0,15.0,30.0,30.0,60.0,RR,59.97877050963142,
18.0,1.0,resp2,stim/right_resp_img.png,"[-0.5, 0]",right,stim/gold_coin.png,silver,,,,,training,,,gold,val,,,,,0.0,0.0,0.0,0.0,1.0,1.0,3.0,1.0,,,,,,,,,0.0,training_resp,,226.7263955436647,19.938325327122584,3.0,,right,gold,0.0,50.0,2.0,right,2021_Nov_15_1622,habits_v_MRI,5.0,40.0,1.0,5.0,30.0,15.0,5.0,15.0,30.0,30.0,60.0,RR,59.97877050963142,
18.0,1.0,resp2,stim/right_resp_img.png,"[-0.5, 0]",right,stim/gold_coin.png,silver,,,,,training,,,gold,val,,,,,0.0,0.0,0.0,0.0,1.0,1.0,3.0,1.0,,,,,,,,,0.0,training_resp,,226.95966143975969,20.171613509999588,3.0,,right,gold,0.0,50.0,2.0,right,2021_Nov_15_1622,habits_v_MRI,5.0,40.0,1.0,5.0,30.0,15.0,5.0,15.0,30.0,30.0,60.0,RR,59.97877050963142,
18.0,1.0,resp2,stim/right_resp_img.png,"[-0.5, 0]",right,stim/gold_coin.png,silver,,,,,training,,,gold,val,,,,,0.0,0.0,0.0,0.0,1.0,1.0,3.0,1.0,,,,,,,,,0.0,training_resp,,227.20970110152848,20.42166519491002,3.0,,right,gold,0.0,50.0,2.0,right,2021_Nov_15_1622,habits_v_MRI,5.0,40.0,1.0,5.0,30.0,15.0,5.0,15.0,30.0,30.0,60.0,RR,59.97877050963142,
18.0,1.0,resp2,stim/right_resp_img.png,"[-0.5, 0]",right,stim/gold_coin.png,silver,,,,,training,,,gold,val,,,,,0.0,0.0,0.0,0.0,1.0,1.0,3.0,1.0,,,,,,,,,0.0,training_resp,,227.4594008892309,20.671357064973563,3.0,,right,gold,0.0,50.0,2.0,right,2021_Nov_15_1622,habits_v_MRI,5.0,40.0,1.0,5.0,30.0,15.0,5.0,15.0,30.0,30.0,60.0,RR,59.97877050963142,
18.0,1.0,resp2,stim/right_resp_img.png,"[-0.5, 0]",right,stim/gold_coin.png,silver,,,,,training,,,gold,val,,,,,0.0,0.0,0.0,0.0,1.0,1.0,3.0,1.0,,,,,,,,,0.0,training_resp,,227.72614686959423,20.938053193269297,3.0,9.0,right,gold,1.0,50.0,2.0,right,2021_Nov_15_1622,habits_v_MRI,5.0,40.0,1.0,5.0,30.0,15.0,5.0,15.0,30.0,30.0,60.0,RR,59.97877050963142,
18.0,1.0,resp2,stim/right_resp_img.png,"[-0.5, 0]",right,stim/gold_coin.png,silver,,,,,training,,,gold,val,,,,,0.0,0.0,0.0,0.0,1.0,1.0,3.0,1.0,,,,,,,,,0.0,training_resp,,228.2262311782688,21.43815216445364,3.0,,right,gold,0.0,50.0,2.0,right,2021_Nov_15_1622,habits_v_MRI,5.0,40.0,1.0,5.0,30.0,15.0,5.0,15.0,30.0,30.0,60.0,RR,59.97877050963142,
18.0,1.0,resp2,stim/right_resp_img.png,"[-0.5, 0]",right,stim/gold_coin.png,silver,,,,,training,,,gold,val,,,,,0.0,0.0,0.0,0.0,1.0,1.0,3.0,1.0,,,,,,,,,0.0,training_resp,,228.49299123464152,21.704800199950117,3.0,,right,gold,0.0,50.0,2.0,right,2021_Nov_15_1622,habits_v_MRI,5.0,40.0,1.0,5.0,30.0,15.0,5.0,15.0,30.0,30.0,60.0,RR,59.97877050963142,
18.0,1.0,resp2,stim/right_resp_img.png,"[-0.5, 0]",right,stim/gold_coin.png,silver,,,,,training,,,gold,val,,,,,0.0,0.0,0.0,0.0,1.0,1.0,3.0,1.0,,,,,,,,,0.0,training_resp,,228.64285749895495,21.854841239983216,3.0,,left,,,50.0,2.0,right,2021_Nov_15_1622,habits_v_MRI,5.0,40.0,1.0,5.0,30.0,15.0,5.0,15.0,30.0,30.0,60.0,RR,59.97877050963142,
18.0,1.0,resp2,stim/right_resp_img.png,"[-0.5, 0]",right,stim/gold_coin.png,silver,,,,,training,,,gold,val,,,,,0.0,0.0,0.0,0.0,1.0,1.0,3.0,1.0,,,,,,,,,0.0,training_resp,,228.67626192537136,21.888213115977123,3.0,,left,,,50.0,2.0,right,2021_Nov_15_1622,habits_v_MRI,5.0,40.0,1.0,5.0,30.0,15.0,5.0,15.0,30.0,30.0,60.0,RR,59.97877050963142,
18.0,1.0,resp2,stim/right_resp_img.png,"[-0.5, 0]",right,stim/gold_coin.png,silver,,,,,training,,,gold,val,,,,,0.0,0.0,0.0,0.0,1.0,1.0,3.0,1.0,,,,,,,,,0.0,training_resp,,228.7430159407668,21.95482373307459,3.0,,right,gold,0.0,50.0,2.0,right,2021_Nov_15_1622,habits_v_MRI,5.0,40.0,1.0,5.0,30.0,15.0,5.0,15.0,30.0,30.0,60.0,RR,59.97877050963142,
18.0,1.0,resp2,stim/right_resp_img.png,"[-0.5, 0]",right,stim/gold_coin.png,silver,,,,,training,,,gold,val,,,,,0.0,0.0,0.0,0.0,1.0,1.0,3.0,1.0,,,,,,,,,0.0,training_resp,,229.0596527303569,22.271579581312835,3.0,,right,gold,0.0,50.0,2.0,right,2021_Nov_15_1622,habits_v_MRI,5.0,40.0,1.0,5.0,30.0,15.0,5.0,15.0,30.0,30.0,60.0,RR,59.97877050963142,
18.0,1.0,resp2,stim/right_resp_img.png,"[-0.5, 0]",right,stim/gold_coin.png,silver,,,,,training,,,gold,val,,,,,0.0,0.0,0.0,0.0,1.0,1.0,3.0,1.0,,,,,,,,,0.0,training_resp,,229.32651688950136,22.5384754112456,3.0,,right,gold,0.0,50.0,2.0,right,2021_Nov_15_1622,habits_v_MRI,5.0,40.0,1.0,5.0,30.0,15.0,5.0,15.0,30.0,30.0,60.0,RR,59.97877050963142,
18.0,1.0,resp2,stim/right_resp_img.png,"[-0.5, 0]",right,stim/gold_coin.png,silver,,,,,training,,,gold,val,,,,,0.0,0.0,0.0,0.0,1.0,1.0,3.0,1.0,,,,,,,,,0.0,training_resp,,229.6101656644605,22.821775221498683,3.0,,right,gold,0.0,50.0,2.0,right,2021_Nov_15_1622,habits_v_MRI,5.0,40.0,1.0,5.0,30.0,15.0,5.0,15.0,30.0,30.0,60.0,RR,59.97877050963142,
18.0,1.0,resp2,stim/right_resp_img.png,"[-0.5, 0]",right,stim/gold_coin.png,silver,,,,,training,,,gold,val,,,,,0.0,0.0,0.0,0.0,1.0,1.0,3.0,1.0,,,,,,,,,0.0,training_resp,,229.87655769498087,23.08852413436398,3.0,,right,gold,0.0,50.0,2.0,right,2021_Nov_15_1622,habits_v_MRI,5.0,40.0,1.0,5.0,30.0,15.0,5.0,15.0,30.0,30.0,60.0,RR,59.97877050963142,
18.0,1.0,resp2,stim/right_resp_img.png,"[-0.5, 0]",right,stim/gold_coin.png,silver,,,,,training,,,gold,val,,,,,0.0,0.0,0.0,0.0,1.0,1.0,3.0,1.0,,,,,,,,,0.0,training_resp,,230.14338901033625,23.35535632958636,3.0,,right,gold,0.0,50.0,2.0,right,2021_Nov_15_1622,habits_v_MRI,5.0,40.0,1.0,5.0,30.0,15.0,5.0,15.0,30.0,30.0,60.0,RR,59.97877050963142,
18.0,1.0,resp2,stim/right_resp_img.png,"[-0.5, 0]",right,stim/gold_coin.png,silver,,,,,training,,,gold,val,,,,,0.0,0.0,0.0,0.0,1.0,1.0,3.0,1.0,,,,,,,,,0.0,training_resp,,230.4101220879238,23.6220328102354,3.0,6.0,right,gold,1.0,50.0,2.0,right,2021_Nov_15_1622,habits_v_MRI,5.0,40.0,1.0,5.0,30.0,15.0,5.0,15.0,30.0,30.0,60.0,RR,59.97877050963142,
18.0,1.0,resp2,stim/right_resp_img.png,"[-0.5, 0]",right,stim/gold_coin.png,silver,,,,,training,,,gold,val,,,,,0.0,0.0,0.0,0.0,1.0,1.0,3.0,1.0,,,,,,,,,0.0,training_resp,,230.9603136226069,24.17224575206637,3.0,,right,gold,0.0,50.0,2.0,right,2021_Nov_15_1622,habits_v_MRI,5.0,40.0,1.0,5.0,30.0,15.0,5.0,15.0,30.0,30.0,60.0,RR,59.97877050963142,
18.0,1.0,resp2,stim/right_resp_img.png,"[-0.5, 0]",right,stim/gold_coin.png,silver,,,,,training,,,gold,val,,,,,0.0,0.0,0.0,0.0,1.0,1.0,3.0,1.0,,,,,,,,,0.0,training_resp,,231.2436093273573,24.455579285742715,3.0,,right,gold,0.0,50.0,2.0,right,2021_Nov_15_1622,habits_v_MRI,5.0,40.0,1.0,5.0,30.0,15.0,5.0,15.0,30.0,30.0,60.0,RR,59.97877050963142,
18.0,1.0,resp2,stim/right_resp_img.png,"[-0.5, 0]",right,stim/gold_coin.png,silver,,,,,training,,,gold,val,,,,,0.0,0.0,0.0,0.0,1.0,1.0,3.0,1.0,,,,,,,,,0.0,training_resp,,231.52706162631512,24.738987304270267,3.0,,right,gold,0.0,50.0,2.0,right,2021_Nov_15_1622,habits_v_MRI,5.0,40.0,1.0,5.0,30.0,15.0,5.0,15.0,30.0,30.0,60.0,RR,59.97877050963142,
18.0,1.0,resp2,stim/right_resp_img.png,"[-0.5, 0]",right,stim/gold_coin.png,silver,,,,,training,,,gold,val,,,,,0.0,0.0,0.0,0.0,1.0,1.0,3.0,1.0,,,,,,,,,0.0,training_resp,,231.7771482076496,24.989097052253783,3.0,,right,gold,0.0,50.0,2.0,right,2021_Nov_15_1622,habits_v_MRI,5.0,40.0,1.0,5.0,30.0,15.0,5.0,15.0,30.0,30.0,60.0,RR,59.97877050963142,
18.0,1.0,resp2,stim/right_resp_img.png,"[-0.5, 0]",right,stim/gold_coin.png,silver,,,,,training,,,gold,val,,,,,0.0,0.0,0.0,0.0,1.0,1.0,3.0,1.0,,,,,,,,,0.0,training_resp,,232.04385166731663,25.25577265326865,3.0,,right,gold,0.0,50.0,2.0,right,2021_Nov_15_1622,habits_v_MRI,5.0,40.0,1.0,5.0,30.0,15.0,5.0,15.0,30.0,30.0,60.0,RR,59.97877050963142,
18.0,1.0,resp2,stim/right_resp_img.png,"[-0.5, 0]",right,stim/gold_coin.png,silver,,,,,training,,,gold,val,,,,,0.0,0.0,0.0,0.0,1.0,1.0,3.0,1.0,,,,,,,,,0.0,training_resp,,232.3105818121694,25.5225567559246,3.0,20.0,right,gold,1.0,50.0,2.0,right,2021_Nov_15_1622,habits_v_MRI,5.0,40.0,1.0,5.0,30.0,15.0,5.0,15.0,30.0,30.0,60.0,RR,59.97877050963142,
18.0,1.0,resp2,stim/right_resp_img.png,"[-0.5, 0]",right,stim/gold_coin.png,silver,,,,,training,,,gold,val,,,,,0.0,0.0,0.0,0.0,1.0,1.0,3.0,1.0,,,,,,,,,0.0,training_resp,,232.8606756955851,26.072691400535405,3.0,,right,gold,0.0,50.0,2.0,right,2021_Nov_15_1622,habits_v_MRI,5.0,40.0,1.0,5.0,30.0,15.0,5.0,15.0,30.0,30.0,60.0,RR,59.97877050963142,
18.0,1.0,resp2,stim/right_resp_img.png,"[-0.5, 0]",right,stim/gold_coin.png,silver,,,,,training,,,gold,val,,,,,0.0,0.0,0.0,0.0,1.0,1.0,3.0,1.0,,,,,,,,,0.0,training_resp,,233.1107300196309,26.322746311081573,3.0,,right,gold,0.0,50.0,2.0,right,2021_Nov_15_1622,habits_v_MRI,5.0,40.0,1.0,5.0,30.0,15.0,5.0,15.0,30.0,30.0,60.0,RR,59.97877050963142,
18.0,1.0,resp2,stim/right_resp_img.png,"[-0.5, 0]",right,stim/gold_coin.png,silver,,,,,training,,,gold,val,,,,,0.0,0.0,0.0,0.0,1.0,1.0,3.0,1.0,,,,,,,,,0.0,training_resp,,233.377463683486,26.589488185942173,3.0,,right,gold,0.0,50.0,2.0,right,2021_Nov_15_1622,habits_v_MRI,5.0,40.0,1.0,5.0,30.0,15.0,5.0,15.0,30.0,30.0,60.0,RR,59.97877050963142,
18.0,1.0,resp2,stim/right_resp_img.png,"[-0.5, 0]",right,stim/gold_coin.png,silver,,,,,training,,,gold,val,,,,,0.0,0.0,0.0,0.0,1.0,1.0,3.0,1.0,,,,,,,,,0.0,training_resp,,233.62764029204843,26.839635762851685,3.0,,right,gold,0.0,50.0,2.0,right,2021_Nov_15_1622,habits_v_MRI,5.0,40.0,1.0,5.0,30.0,15.0,5.0,15.0,30.0,30.0,60.0,RR,59.97877050963142,
18.0,1.0,resp2,stim/right_resp_img.png,"[-0.5, 0]",right,stim/gold_coin.png,silver,,,,,training,,,gold,val,,,,,0.0,0.0,0.0,0.0,1.0,1.0,3.0,1.0,,,,,,,,,0.0,training_resp,,233.89434404461645,27.106363855069503,3.0,,right,gold,0.0,50.0,2.0,right,2021_Nov_15_1622,habits_v_MRI,5.0,40.0,1.0,5.0,30.0,15.0,5.0,15.0,30.0,30.0,60.0,RR,59.97877050963142,
18.0,1.0,resp2,stim/right_resp_img.png,"[-0.5, 0]",right,stim/gold_coin.png,silver,,,,,training,,,gold,val,,,,,0.0,0.0,0.0,0.0,1.0,1.0,3.0,1.0,,,,,,,,,0.0,training_resp,,234.178056454286,27.38979152147658,3.0,,right,gold,0.0,50.0,2.0,right,2021_Nov_15_1622,habits_v_MRI,5.0,40.0,1.0,5.0,30.0,15.0,5.0,15.0,30.0,30.0,60.0,RR,59.97877050963142,
18.0,1.0,resp2,stim/right_resp_img.png,"[-0.5, 0]",right,stim/gold_coin.png,silver,,,,,training,,,gold,val,,,,,0.0,0.0,0.0,0.0,1.0,1.0,3.0,1.0,,,,,,,,,0.0,training_resp,,234.427844802849,27.63986285380088,3.0,,right,gold,0.0,50.0,2.0,right,2021_Nov_15_1622,habits_v_MRI,5.0,40.0,1.0,5.0,30.0,15.0,5.0,15.0,30.0,30.0,60.0,RR,59.97877050963142,
18.0,1.0,resp2,stim/right_resp_img.png,"[-0.5, 0]",right,stim/gold_coin.png,silver,,,,,training,,,gold,val,,,,,0.0,0.0,0.0,0.0,1.0,1.0,3.0,1.0,,,,,,,,,0.0,training_resp,,234.7112460767385,27.923259435920045,3.0,,right,gold,0.0,50.0,2.0,right,2021_Nov_15_1622,habits_v_MRI,5.0,40.0,1.0,5.0,30.0,15.0,5.0,15.0,30.0,30.0,60.0,RR,59.97877050963142,
18.0,1.0,resp2,stim/right_resp_img.png,"[-0.5, 0]",right,stim/gold_coin.png,silver,,,,,training,,,gold,val,,,,,0.0,0.0,0.0,0.0,1.0,1.0,3.0,1.0,,,,,,,,,0.0,training_resp,,234.99470893270336,28.206709682010118,3.0,,right,gold,0.0,50.0,2.0,right,2021_Nov_15_1622,habits_v_MRI,5.0,40.0,1.0,5.0,30.0,15.0,5.0,15.0,30.0,30.0,60.0,RR,59.97877050963142,
18.0,1.0,resp2,stim/right_resp_img.png,"[-0.5, 0]",right,stim/gold_coin.png,silver,,,,,training,,,gold,val,,,,,0.0,0.0,0.0,0.0,1.0,1.0,3.0,1.0,,,,,,,,,0.0,training_resp,,235.1280662342906,28.34004704281688,3.0,,left,,,50.0,2.0,right,2021_Nov_15_1622,habits_v_MRI,5.0,40.0,1.0,5.0,30.0,15.0,5.0,15.0,30.0,30.0,60.0,RR,59.97877050963142,
18.0,1.0,resp2,stim/right_resp_img.png,"[-0.5, 0]",right,stim/gold_coin.png,silver,,,,,training,,,gold,val,,,,,0.0,0.0,0.0,0.0,1.0,1.0,3.0,1.0,,,,,,,,,0.0,training_resp,,235.16143869655207,28.373446776997294,3.0,,left,,,50.0,2.0,right,2021_Nov_15_1622,habits_v_MRI,5.0,40.0,1.0,5.0,30.0,15.0,5.0,15.0,30.0,30.0,60.0,RR,59.97877050963142,
18.0,1.0,resp2,stim/right_resp_img.png,"[-0.5, 0]",right,stim/gold_coin.png,silver,,,,,training,,,gold,val,,,,,0.0,0.0,0.0,0.0,1.0,1.0,3.0,1.0,,,,,,,,,0.0,training_resp,,235.3115058355033,28.523397496901453,3.0,,right,gold,0.0,50.0,2.0,right,2021_Nov_15_1622,habits_v_MRI,5.0,40.0,1.0,5.0,30.0,15.0,5.0,15.0,30.0,30.0,60.0,RR,59.97877050963142,
18.0,1.0,resp2,stim/right_resp_img.png,"[-0.5, 0]",right,stim/gold_coin.png,silver,,,,,training,,,gold,val,,,,,0.0,0.0,0.0,0.0,1.0,1.0,3.0,1.0,,,,,,,,,0.0,training_resp,,235.59509772039016,28.806866217637435,3.0,,right,gold,0.0,50.0,2.0,right,2021_Nov_15_1622,habits_v_MRI,5.0,40.0,1.0,5.0,30.0,15.0,5.0,15.0,30.0,30.0,60.0,RR,59.97877050963142,
18.0,1.0,resp2,stim/right_resp_img.png,"[-0.5, 0]",right,stim/gold_coin.png,silver,,,,,training,,,gold,val,,,,,0.0,0.0,0.0,0.0,1.0,1.0,3.0,1.0,,,,,,,,,0.0,training_resp,,235.8782673287205,29.09028450003825,3.0,,right,gold,0.0,50.0,2.0,right,2021_Nov_15_1622,habits_v_MRI,5.0,40.0,1.0,5.0,30.0,15.0,5.0,15.0,30.0,30.0,60.0,RR,59.97877050963142,
18.0,1.0,resp2,stim/right_resp_img.png,"[-0.5, 0]",right,stim/gold_coin.png,silver,,,,,training,,,gold,val,,,,,0.0,0.0,0.0,0.0,1.0,1.0,3.0,1.0,,,,,,,,,0.0,training_resp,,236.16170349926688,29.373729174491015,3.0,,right,gold,0.0,50.0,2.0,right,2021_Nov_15_1622,habits_v_MRI,5.0,40.0,1.0,5.0,30.0,15.0,5.0,15.0,30.0,30.0,60.0,RR,59.97877050963142,
18.0,1.0,resp2,stim/right_resp_img.png,"[-0.5, 0]",right,stim/gold_coin.png,silver,,,,,training,,,gold,val,,,,,0.0,0.0,0.0,0.0,1.0,1.0,3.0,1.0,,,,,,,,,0.0,training_resp,,236.4450678238645,29.657090860186145,3.0,,right,gold,0.0,50.0,2.0,right,2021_Nov_15_1622,habits_v_MRI,5.0,40.0,1.0,5.0,30.0,15.0,5.0,15.0,30.0,30.0,60.0,RR,59.97877050963142,
18.0,1.0,resp2,stim/right_resp_img.png,"[-0.5, 0]",right,stim/gold_coin.png,silver,,,,,training,,,gold,val,,,,,0.0,0.0,0.0,0.0,1.0,1.0,3.0,1.0,,,,,,,,,0.0,ITI_start,20.0,236.54620805871676,29.75713464198634,,,,,,50.0,2.0,right,2021_Nov_15_1622,habits_v_MRI,5.0,40.0,1.0,5.0,30.0,15.0,5.0,15.0,30.0,30.0,60.0,RR,59.97877050963142,
18.0,0.0,resp1,stim/left_resp_img.png,"[0.5, 0]",left,stim/silver_coin.png,silver,,,,,training,,,silver,deval,,,,,0.0,0.0,0.0,0.0,2.0,0.0,4.0,0.0,,,,,,,,,0.0,training_period_start,37.5,256.5894749900326,0.0,4.0,14.0,,,,50.0,2.0,right,2021_Nov_15_1622,habits_v_MRI,5.0,40.0,1.0,5.0,30.0,15.0,5.0,15.0,30.0,30.0,60.0,RR,59.97877050963142,
18.0,0.0,resp1,stim/left_resp_img.png,"[0.5, 0]",left,stim/silver_coin.png,silver,,,,,training,,,silver,deval,,,,,0.0,0.0,0.0,0.0,2.0,0.0,4.0,0.0,,,,,,,,,0.0,training_resp,,257.0344390042592,0.4648060298059135,4.0,,left,silver,0.0,50.0,2.0,right,2021_Nov_15_1622,habits_v_MRI,5.0,40.0,1.0,5.0,30.0,15.0,5.0,15.0,30.0,30.0,60.0,RR,59.97877050963142,
18.0,0.0,resp1,stim/left_resp_img.png,"[0.5, 0]",left,stim/silver_coin.png,silver,,,,,training,,,silver,deval,,,,,0.0,0.0,0.0,0.0,2.0,0.0,4.0,0.0,,,,,,,,,0.0,training_resp,,257.33445334387943,0.7649057046510279,4.0,,left,silver,0.0,50.0,2.0,right,2021_Nov_15_1622,habits_v_MRI,5.0,40.0,1.0,5.0,30.0,15.0,5.0,15.0,30.0,30.0,60.0,RR,59.97877050963142,
18.0,0.0,resp1,stim/left_resp_img.png,"[0.5, 0]",left,stim/silver_coin.png,silver,,,,,training,,,silver,deval,,,,,0.0,0.0,0.0,0.0,2.0,0.0,4.0,0.0,,,,,,,,,0.0,training_resp,,257.5678485622629,0.9983103070408106,4.0,,left,silver,0.0,50.0,2.0,right,2021_Nov_15_1622,habits_v_MRI,5.0,40.0,1.0,5.0,30.0,15.0,5.0,15.0,30.0,30.0,60.0,RR,59.97877050963142,
18.0,0.0,resp1,stim/left_resp_img.png,"[0.5, 0]",left,stim/silver_coin.png,silver,,,,,training,,,silver,deval,,,,,0.0,0.0,0.0,0.0,2.0,0.0,4.0,0.0,,,,,,,,,0.0,training_resp,,257.8179436479695,1.2483737217262387,4.0,,left,silver,0.0,50.0,2.0,right,2021_Nov_15_1622,habits_v_MRI,5.0,40.0,1.0,5.0,30.0,15.0,5.0,15.0,30.0,30.0,60.0,RR,59.97877050963142,
18.0,0.0,resp1,stim/left_resp_img.png,"[0.5, 0]",left,stim/silver_coin.png,silver,,,,,training,,,silver,deval,,,,,0.0,0.0,0.0,0.0,2.0,0.0,4.0,0.0,,,,,,,,,0.0,training_resp,,258.0680921045132,1.498527750140056,4.0,,left,silver,0.0,50.0,2.0,right,2021_Nov_15_1622,habits_v_MRI,5.0,40.0,1.0,5.0,30.0,15.0,5.0,15.0,30.0,30.0,60.0,RR,59.97877050963142,
18.0,0.0,resp1,stim/left_resp_img.png,"[0.5, 0]",left,stim/silver_coin.png,silver,,,,,training,,,silver,deval,,,,,0.0,0.0,0.0,0.0,2.0,0.0,4.0,0.0,,,,,,,,,0.0,training_resp,,258.3181531734299,1.7485732766799629,4.0,,left,silver,0.0,50.0,2.0,right,2021_Nov_15_1622,habits_v_MRI,5.0,40.0,1.0,5.0,30.0,15.0,5.0,15.0,30.0,30.0,60.0,RR,59.97877050963142,
18.0,0.0,resp1,stim/left_resp_img.png,"[0.5, 0]",left,stim/silver_coin.png,silver,,,,,training,,,silver,deval,,,,,0.0,0.0,0.0,0.0,2.0,0.0,4.0,0.0,,,,,,,,,0.0,training_resp,,258.5683321277611,1.9987844882998616,4.0,,left,silver,0.0,50.0,2.0,right,2021_Nov_15_1622,habits_v_MRI,5.0,40.0,1.0,5.0,30.0,15.0,5.0,15.0,30.0,30.0,60.0,RR,59.97877050963142,
18.0,0.0,resp1,stim/left_resp_img.png,"[0.5, 0]",left,stim/silver_coin.png,silver,,,,,training,,,silver,deval,,,,,0.0,0.0,0.0,0.0,2.0,0.0,4.0,0.0,,,,,,,,,0.0,training_resp,,258.8184245740995,2.2488763481378555,4.0,,left,silver,0.0,50.0,2.0,right,2021_Nov_15_1622,habits_v_MRI,5.0,40.0,1.0,5.0,30.0,15.0,5.0,15.0,30.0,30.0,60.0,RR,59.97877050963142,
18.0,0.0,resp1,stim/left_resp_img.png,"[0.5, 0]",left,stim/silver_coin.png,silver,,,,,training,,,silver,deval,,,,,0.0,0.0,0.0,0.0,2.0,0.0,4.0,0.0,,,,,,,,,0.0,training_resp,,259.0685830011498,2.4990453321952373,4.0,,left,silver,0.0,50.0,2.0,right,2021_Nov_15_1622,habits_v_MRI,5.0,40.0,1.0,5.0,30.0,15.0,5.0,15.0,30.0,30.0,60.0,RR,59.97877050963142,
18.0,0.0,resp1,stim/left_resp_img.png,"[0.5, 0]",left,stim/silver_coin.png,silver,,,,,training,,,silver,deval,,,,,0.0,0.0,0.0,0.0,2.0,0.0,4.0,0.0,,,,,,,,,0.0,training_resp,,259.3186393778305,2.7491046416107565,4.0,,left,silver,0.0,50.0,2.0,right,2021_Nov_15_1622,habits_v_MRI,5.0,40.0,1.0,5.0,30.0,15.0,5.0,15.0,30.0,30.0,60.0,RR,59.97877050963142,
18.0,0.0,resp1,stim/left_resp_img.png,"[0.5, 0]",left,stim/silver_coin.png,silver,,,,,training,,,silver,deval,,,,,0.0,0.0,0.0,0.0,2.0,0.0,4.0,0.0,,,,,,,,,0.0,training_resp,,259.58532465598546,3.015767339617014,4.0,,left,silver,0.0,50.0,2.0,right,2021_Nov_15_1622,habits_v_MRI,5.0,40.0,1.0,5.0,30.0,15.0,5.0,15.0,30.0,30.0,60.0,RR,59.97877050963142,
18.0,0.0,resp1,stim/left_resp_img.png,"[0.5, 0]",left,stim/silver_coin.png,silver,,,,,training,,,silver,deval,,,,,0.0,0.0,0.0,0.0,2.0,0.0,4.0,0.0,,,,,,,,,0.0,training_resp,,259.8354030265473,3.2658530410844837,4.0,,left,silver,0.0,50.0,2.0,right,2021_Nov_15_1622,habits_v_MRI,5.0,40.0,1.0,5.0,30.0,15.0,5.0,15.0,30.0,30.0,60.0,RR,59.97877050963142,
18.0,0.0,resp1,stim/left_resp_img.png,"[0.5, 0]",left,stim/silver_coin.png,silver,,,,,training,,,silver,deval,,,,,0.0,0.0,0.0,0.0,2.0,0.0,4.0,0.0,,,,,,,,,0.0,training_resp,,260.0856646767352,3.516005603363737,4.0,,left,silver,0.0,50.0,2.0,right,2021_Nov_15_1622,habits_v_MRI,5.0,40.0,1.0,5.0,30.0,15.0,5.0,15.0,30.0,30.0,60.0,RR,59.97877050963142,
18.0,0.0,resp1,stim/left_resp_img.png,"[0.5, 0]",left,stim/silver_coin.png,silver,,,,,training,,,silver,deval,,,,,0.0,0.0,0.0,0.0,2.0,0.0,4.0,0.0,,,,,,,,,0.0,training_resp,,260.3355717905797,3.766024737618864,4.0,15.0,left,silver,1.0,50.0,2.0,right,2021_Nov_15_1622,habits_v_MRI,5.0,40.0,1.0,5.0,30.0,15.0,5.0,15.0,30.0,30.0,60.0,RR,59.97877050963142,
18.0,0.0,resp1,stim/left_resp_img.png,"[0.5, 0]",left,stim/silver_coin.png,silver,,,,,training,,,silver,deval,,,,,0.0,0.0,0.0,0.0,2.0,0.0,4.0,0.0,,,,,,,,,0.0,training_resp,,260.8523671098519,4.282821523258463,4.0,,left,silver,0.0,50.0,2.0,right,2021_Nov_15_1622,habits_v_MRI,5.0,40.0,1.0,5.0,30.0,15.0,5.0,15.0,30.0,30.0,60.0,RR,59.97877050963142,
18.0,0.0,resp1,stim/left_resp_img.png,"[0.5, 0]",left,stim/silver_coin.png,silver,,,,,training,,,silver,deval,,,,,0.0,0.0,0.0,0.0,2.0,0.0,4.0,0.0,,,,,,,,,0.0,training_resp,,261.1025478236843,4.532995785586536,4.0,,left,silver,0.0,50.0,2.0,right,2021_Nov_15_1622,habits_v_MRI,5.0,40.0,1.0,5.0,30.0,15.0,5.0,15.0,30.0,30.0,60.0,RR,59.97877050963142,
18.0,0.0,resp1,stim/left_resp_img.png,"[0.5, 0]",left,stim/silver_coin.png,silver,,,,,training,,,silver,deval,,,,,0.0,0.0,0.0,0.0,2.0,0.0,4.0,0.0,,,,,,,,,0.0,training_resp,,261.35265317279845,4.782969466643408,4.0,,left,silver,0.0,50.0,2.0,right,2021_Nov_15_1622,habits_v_MRI,5.0,40.0,1.0,5.0,30.0,15.0,5.0,15.0,30.0,30.0,60.0,RR,59.97877050963142,
18.0,0.0,resp1,stim/left_resp_img.png,"[0.5, 0]",left,stim/silver_coin.png,silver,,,,,training,,,silver,deval,,,,,0.0,0.0,0.0,0.0,2.0,0.0,4.0,0.0,,,,,,,,,0.0,training_resp,,261.58598094433546,5.016416296595708,4.0,,left,silver,0.0,50.0,2.0,right,2021_Nov_15_1622,habits_v_MRI,5.0,40.0,1.0,5.0,30.0,15.0,5.0,15.0,30.0,30.0,60.0,RR,59.97877050963142,
