list,trial_num_python,condition,stimulus,position,corrResp,coin_img,devalued_coin,stimulus_choice1,stimulus_choice2,position1,position2,phase,corrResp1,corrResp2,outcome,cond_val,outcome_choice1,outcome_choice2,cond_val1,cond_val2,blockLoop.thisRepN,blockLoop.thisTrialN,blockLoop.thisN,blockLoop.thisIndex,trialLoop.thisRepN,trialLoop.thisTrialN,trialLoop.thisN,trialLoop.thisIndex,choice_trialLoop.thisRepN,choice_trialLoop.thisTrialN,choice_trialLoop.thisN,choice_trialLoop.thisIndex,contingency_trialLoop.thisRepN,contingency_trialLoop.thisTrialN,contingency_trialLoop.thisN,contingency_trialLoop.thisIndex,run,event,duration,globalClock_t,routineClock_t,trial,nResp_untilRnf,resp,selected_coin,wasRnf,participant,task_ordering,hand,date,expName,n_repeat_training,credits_per_rnf,cost_response,min_resp_bet_rnf,max_resp_bet_rnf,mean_resp_bet_rnf,sigma_resp_bet_rnf,min_ITI,max_ITI,min_trial_duration,max_trial_duration,schedule,frameRate,Unnamed: 65
25.0,0.0,resp1,stim/right_resp_img.png,"[-0.5, 0]",right,stim/silver_coin.png,silver,,,,,training,,,silver,deval,,,,,0.0,0.0,0.0,0.0,0.0,0.0,0.0,0.0,,,,,,,,,0.0,instr_before_block,6.0,0.0042852027836488,,,,,,,217.0,2.0,right,2023_Aug_10_1151,habits_v_MRI,5.0,40.0,1.0,5.0,30.0,15.0,5.0,15.0,30.0,30.0,60.0,RR,60.04523500282045,
25.0,0.0,resp1,stim/right_resp_img.png,"[-0.5, 0]",right,stim/silver_coin.png,silver,,,,,training,,,silver,deval,,,,,0.0,0.0,0.0,0.0,0.0,0.0,0.0,0.0,,,,,,,,,0.0,training_period_start,30.0,6.038337506717653,0.0,0.0,19.0,,,,217.0,2.0,right,2023_Aug_10_1151,habits_v_MRI,5.0,40.0,1.0,5.0,30.0,15.0,5.0,15.0,30.0,30.0,60.0,RR,60.04523500282045,
25.0,0.0,resp1,stim/right_resp_img.png,"[-0.5, 0]",right,stim/silver_coin.png,silver,,,,,training,,,silver,deval,,,,,0.0,0.0,0.0,0.0,0.0,0.0,0.0,0.0,,,,,,,,,0.0,training_resp,,8.034438215589034,2.015338521625381,0.0,,right,silver,0.0,217.0,2.0,right,2023_Aug_10_1151,habits_v_MRI,5.0,40.0,1.0,5.0,30.0,15.0,5.0,15.0,30.0,30.0,60.0,RR,60.04523500282045,
25.0,0.0,resp1,stim/right_resp_img.png,"[-0.5, 0]",right,stim/silver_coin.png,silver,,,,,training,,,silver,deval,,,,,0.0,0.0,0.0,0.0,0.0,0.0,0.0,0.0,,,,,,,,,0.0,training_resp,,9.16750764712924,3.1486794989032205,0.0,,right,silver,0.0,217.0,2.0,right,2023_Aug_10_1151,habits_v_MRI,5.0,40.0,1.0,5.0,30.0,15.0,5.0,15.0,30.0,30.0,60.0,RR,60.04523500282045,
25.0,0.0,resp1,stim/right_resp_img.png,"[-0.5, 0]",right,stim/silver_coin.png,silver,,,,,training,,,silver,deval,,,,,0.0,0.0,0.0,0.0,0.0,0.0,0.0,0.0,,,,,,,,,0.0,training_resp,,10.167398852892802,4.14856953168055,0.0,,right,silver,0.0,217.0,2.0,right,2023_Aug_10_1151,habits_v_MRI,5.0,40.0,1.0,5.0,30.0,15.0,5.0,15.0,30.0,30.0,60.0,RR,60.04523500282045,
25.0,0.0,resp1,stim/right_resp_img.png,"[-0.5, 0]",right,stim/silver_coin.png,silver,,,,,training,,,silver,deval,,,,,0.0,0.0,0.0,0.0,0.0,0.0,0.0,0.0,,,,,,,,,0.0,training_resp,,11.1837971653149,5.165075172117213,0.0,,right,silver,0.0,217.0,2.0,right,2023_Aug_10_1151,habits_v_MRI,5.0,40.0,1.0,5.0,30.0,15.0,5.0,15.0,30.0,30.0,60.0,RR,60.04523500282045,
25.0,0.0,resp1,stim/right_resp_img.png,"[-0.5, 0]",right,stim/silver_coin.png,silver,,,,,training,,,silver,deval,,,,,0.0,0.0,0.0,0.0,0.0,0.0,0.0,0.0,,,,,,,,,0.0,training_resp,,12.283796373551011,6.265004294575192,0.0,,right,silver,0.0,217.0,2.0,right,2023_Aug_10_1151,habits_v_MRI,5.0,40.0,1.0,5.0,30.0,15.0,5.0,15.0,30.0,30.0,60.0,RR,60.04523500282045,
25.0,0.0,resp1,stim/right_resp_img.png,"[-0.5, 0]",right,stim/silver_coin.png,silver,,,,,training,,,silver,deval,,,,,0.0,0.0,0.0,0.0,0.0,0.0,0.0,0.0,,,,,,,,,0.0,training_resp,,13.13388612147537,7.115093162763515,0.0,,right,silver,0.0,217.0,2.0,right,2023_Aug_10_1151,habits_v_MRI,5.0,40.0,1.0,5.0,30.0,15.0,5.0,15.0,30.0,30.0,60.0,RR,60.04523500282045,
25.0,0.0,resp1,stim/right_resp_img.png,"[-0.5, 0]",right,stim/silver_coin.png,silver,,,,,training,,,silver,deval,,,,,0.0,0.0,0.0,0.0,0.0,0.0,0.0,0.0,,,,,,,,,0.0,training_resp,,14.63398714469804,8.61501941140159,0.0,,right,silver,0.0,217.0,2.0,right,2023_Aug_10_1151,habits_v_MRI,5.0,40.0,1.0,5.0,30.0,15.0,5.0,15.0,30.0,30.0,60.0,RR,60.04523500282045,
25.0,0.0,resp1,stim/right_resp_img.png,"[-0.5, 0]",right,stim/silver_coin.png,silver,,,,,training,,,silver,deval,,,,,0.0,0.0,0.0,0.0,0.0,0.0,0.0,0.0,,,,,,,,,0.0,training_resp,,16.60030784958508,10.581487618997926,0.0,,right,silver,0.0,217.0,2.0,right,2023_Aug_10_1151,habits_v_MRI,5.0,40.0,1.0,5.0,30.0,15.0,5.0,15.0,30.0,30.0,60.0,RR,60.04523500282045,
25.0,0.0,resp1,stim/right_resp_img.png,"[-0.5, 0]",right,stim/silver_coin.png,silver,,,,,training,,,silver,deval,,,,,0.0,0.0,0.0,0.0,0.0,0.0,0.0,0.0,,,,,,,,,0.0,training_resp,,18.20029078266816,12.181419820539304,0.0,,right,silver,0.0,217.0,2.0,right,2023_Aug_10_1151,habits_v_MRI,5.0,40.0,1.0,5.0,30.0,15.0,5.0,15.0,30.0,30.0,60.0,RR,60.04523500282045,
25.0,0.0,resp1,stim/right_resp_img.png,"[-0.5, 0]",right,stim/silver_coin.png,silver,,,,,training,,,silver,deval,,,,,0.0,0.0,0.0,0.0,0.0,0.0,0.0,0.0,,,,,,,,,0.0,training_resp,,20.58336351322941,14.56457055453211,0.0,,right,silver,0.0,217.0,2.0,right,2023_Aug_10_1151,habits_v_MRI,5.0,40.0,1.0,5.0,30.0,15.0,5.0,15.0,30.0,30.0,60.0,RR,60.04523500282045,
25.0,0.0,resp1,stim/right_resp_img.png,"[-0.5, 0]",right,stim/silver_coin.png,silver,,,,,training,,,silver,deval,,,,,0.0,0.0,0.0,0.0,0.0,0.0,0.0,0.0,,,,,,,,,0.0,training_resp,,22.849947523645824,16.831103833392262,0.0,,right,silver,0.0,217.0,2.0,right,2023_Aug_10_1151,habits_v_MRI,5.0,40.0,1.0,5.0,30.0,15.0,5.0,15.0,30.0,30.0,60.0,RR,60.04523500282045,
25.0,0.0,resp1,stim/right_resp_img.png,"[-0.5, 0]",right,stim/silver_coin.png,silver,,,,,training,,,silver,deval,,,,,0.0,0.0,0.0,0.0,0.0,0.0,0.0,0.0,,,,,,,,,0.0,training_resp,,23.399861646583304,17.381054612065782,0.0,,right,silver,0.0,217.0,2.0,right,2023_Aug_10_1151,habits_v_MRI,5.0,40.0,1.0,5.0,30.0,15.0,5.0,15.0,30.0,30.0,60.0,RR,60.04523500282045,
25.0,0.0,resp1,stim/right_resp_img.png,"[-0.5, 0]",right,stim/silver_coin.png,silver,,,,,training,,,silver,deval,,,,,0.0,0.0,0.0,0.0,0.0,0.0,0.0,0.0,,,,,,,,,0.0,training_resp,,25.666367946818355,19.647552408176125,0.0,,right,silver,0.0,217.0,2.0,right,2023_Aug_10_1151,habits_v_MRI,5.0,40.0,1.0,5.0,30.0,15.0,5.0,15.0,30.0,30.0,60.0,RR,60.04523500282045,
25.0,0.0,resp1,stim/right_resp_img.png,"[-0.5, 0]",right,stim/silver_coin.png,silver,,,,,training,,,silver,deval,,,,,0.0,0.0,0.0,0.0,0.0,0.0,0.0,0.0,,,,,,,,,0.0,training_resp,,26.93295225048496,20.91415694580064,0.0,,right,silver,0.0,217.0,2.0,right,2023_Aug_10_1151,habits_v_MRI,5.0,40.0,1.0,5.0,30.0,15.0,5.0,15.0,30.0,30.0,60.0,RR,60.04523500282045,
25.0,0.0,resp1,stim/right_resp_img.png,"[-0.5, 0]",right,stim/silver_coin.png,silver,,,,,training,,,silver,deval,,,,,0.0,0.0,0.0,0.0,0.0,0.0,0.0,0.0,,,,,,,,,0.0,training_resp,,28.19957819505362,22.180760017203283,0.0,,right,silver,0.0,217.0,2.0,right,2023_Aug_10_1151,habits_v_MRI,5.0,40.0,1.0,5.0,30.0,15.0,5.0,15.0,30.0,30.0,60.0,RR,60.04523500282045,
25.0,0.0,resp1,stim/right_resp_img.png,"[-0.5, 0]",right,stim/silver_coin.png,silver,,,,,training,,,silver,deval,,,,,0.0,0.0,0.0,0.0,0.0,0.0,0.0,0.0,,,,,,,,,0.0,training_resp,,29.133345962458407,23.11401284475869,0.0,,right,silver,0.0,217.0,2.0,right,2023_Aug_10_1151,habits_v_MRI,5.0,40.0,1.0,5.0,30.0,15.0,5.0,15.0,30.0,30.0,60.0,RR,60.04523500282045,
25.0,0.0,resp1,stim/right_resp_img.png,"[-0.5, 0]",right,stim/silver_coin.png,silver,,,,,training,,,silver,deval,,,,,0.0,0.0,0.0,0.0,0.0,0.0,0.0,0.0,,,,,,,,,0.0,training_resp,,29.799481658497825,23.780619493758422,0.0,,right,silver,0.0,217.0,2.0,right,2023_Aug_10_1151,habits_v_MRI,5.0,40.0,1.0,5.0,30.0,15.0,5.0,15.0,30.0,30.0,60.0,RR,60.04523500282045,
25.0,0.0,resp1,stim/right_resp_img.png,"[-0.5, 0]",right,stim/silver_coin.png,silver,,,,,training,,,silver,deval,,,,,0.0,0.0,0.0,0.0,0.0,0.0,0.0,0.0,,,,,,,,,0.0,training_resp,,30.94941478376859,24.93053121207049,0.0,,right,silver,0.0,217.0,2.0,right,2023_Aug_10_1151,habits_v_MRI,5.0,40.0,1.0,5.0,30.0,15.0,5.0,15.0,30.0,30.0,60.0,RR,60.04523500282045,
25.0,0.0,resp1,stim/right_resp_img.png,"[-0.5, 0]",right,stim/silver_coin.png,silver,,,,,training,,,silver,deval,,,,,0.0,0.0,0.0,0.0,0.0,0.0,0.0,0.0,,,,,,,,,0.0,training_resp,,31.982800539699383,25.96385714581993,0.0,18.0,right,silver,1.0,217.0,2.0,right,2023_Aug_10_1151,habits_v_MRI,5.0,40.0,1.0,5.0,30.0,15.0,5.0,15.0,30.0,30.0,60.0,RR,60.04523500282045,
25.0,0.0,resp1,stim/right_resp_img.png,"[-0.5, 0]",right,stim/silver_coin.png,silver,,,,,training,,,silver,deval,,,,,0.0,0.0,0.0,0.0,0.0,0.0,0.0,0.0,,,,,,,,,0.0,training_resp,,33.16600446848315,27.147089226229586,0.0,,right,silver,0.0,217.0,2.0,right,2023_Aug_10_1151,habits_v_MRI,5.0,40.0,1.0,5.0,30.0,15.0,5.0,15.0,30.0,30.0,60.0,RR,60.04523500282045,
25.0,0.0,resp1,stim/right_resp_img.png,"[-0.5, 0]",right,stim/silver_coin.png,silver,,,,,training,,,silver,deval,,,,,0.0,0.0,0.0,0.0,0.0,0.0,0.0,0.0,,,,,,,,,0.0,training_resp,,34.115991081809625,28.09705384611152,0.0,,right,silver,0.0,217.0,2.0,right,2023_Aug_10_1151,habits_v_MRI,5.0,40.0,1.0,5.0,30.0,15.0,5.0,15.0,30.0,30.0,60.0,RR,60.04523500282045,
25.0,0.0,resp1,stim/right_resp_img.png,"[-0.5, 0]",right,stim/silver_coin.png,silver,,,,,training,,,silver,deval,,,,,0.0,0.0,0.0,0.0,0.0,0.0,0.0,0.0,,,,,,,,,0.0,training_resp,,34.78262764189276,28.763673104680493,0.0,,right,silver,0.0,217.0,2.0,right,2023_Aug_10_1151,habits_v_MRI,5.0,40.0,1.0,5.0,30.0,15.0,5.0,15.0,30.0,30.0,60.0,RR,60.04523500282045,
25.0,0.0,resp1,stim/right_resp_img.png,"[-0.5, 0]",right,stim/silver_coin.png,silver,,,,,training,,,silver,deval,,,,,0.0,0.0,0.0,0.0,0.0,0.0,0.0,0.0,,,,,,,,,0.0,ITI_start,15.0,35.700131990000955,29.680298887979006,,,,,,217.0,2.0,right,2023_Aug_10_1151,habits_v_MRI,5.0,40.0,1.0,5.0,30.0,15.0,5.0,15.0,30.0,30.0,60.0,RR,60.04523500282045,
25.0,1.0,resp2,stim/left_resp_img.png,"[0.5, 0]",left,stim/gold_coin.png,silver,,,,,training,,,gold,val,,,,,0.0,0.0,0.0,0.0,0.0,1.0,1.0,1.0,,,,,,,,,0.0,training_period_start,45.0,50.73547897471872,0.0,1.0,20.0,,,,217.0,2.0,right,2023_Aug_10_1151,habits_v_MRI,5.0,40.0,1.0,5.0,30.0,15.0,5.0,15.0,30.0,30.0,60.0,RR,60.04523500282045,
25.0,1.0,resp2,stim/left_resp_img.png,"[0.5, 0]",left,stim/gold_coin.png,silver,,,,,training,,,gold,val,,,,,0.0,0.0,0.0,0.0,0.0,1.0,1.0,1.0,,,,,,,,,0.0,training_resp,,52.36488737743639,1.6481585475121392,1.0,,left,gold,0.0,217.0,2.0,right,2023_Aug_10_1151,habits_v_MRI,5.0,40.0,1.0,5.0,30.0,15.0,5.0,15.0,30.0,30.0,60.0,RR,60.04523500282045,
25.0,1.0,resp2,stim/left_resp_img.png,"[0.5, 0]",left,stim/gold_coin.png,silver,,,,,training,,,gold,val,,,,,0.0,0.0,0.0,0.0,0.0,1.0,1.0,1.0,,,,,,,,,0.0,training_resp,,53.39803237846354,2.6813794992340263,1.0,,left,gold,0.0,217.0,2.0,right,2023_Aug_10_1151,habits_v_MRI,5.0,40.0,1.0,5.0,30.0,15.0,5.0,15.0,30.0,30.0,60.0,RR,60.04523500282045,
25.0,1.0,resp2,stim/left_resp_img.png,"[0.5, 0]",left,stim/gold_coin.png,silver,,,,,training,,,gold,val,,,,,0.0,0.0,0.0,0.0,0.0,1.0,1.0,1.0,,,,,,,,,0.0,training_resp,,53.78141477673489,3.064651637032512,1.0,,left,gold,0.0,217.0,2.0,right,2023_Aug_10_1151,habits_v_MRI,5.0,40.0,1.0,5.0,30.0,15.0,5.0,15.0,30.0,30.0,60.0,RR,60.04523500282045,
25.0,1.0,resp2,stim/left_resp_img.png,"[0.5, 0]",left,stim/gold_coin.png,silver,,,,,training,,,gold,val,,,,,0.0,0.0,0.0,0.0,0.0,1.0,1.0,1.0,,,,,,,,,0.0,training_resp,,54.18123097017815,3.464598618171294,1.0,,left,gold,0.0,217.0,2.0,right,2023_Aug_10_1151,habits_v_MRI,5.0,40.0,1.0,5.0,30.0,15.0,5.0,15.0,30.0,30.0,60.0,RR,60.04523500282045,
25.0,1.0,resp2,stim/left_resp_img.png,"[0.5, 0]",left,stim/gold_coin.png,silver,,,,,training,,,gold,val,,,,,0.0,0.0,0.0,0.0,0.0,1.0,1.0,1.0,,,,,,,,,0.0,training_resp,,55.631151163295726,4.914497697580373,1.0,,left,gold,0.0,217.0,2.0,right,2023_Aug_10_1151,habits_v_MRI,5.0,40.0,1.0,5.0,30.0,15.0,5.0,15.0,30.0,30.0,60.0,RR,60.04523500282045,
25.0,1.0,resp2,stim/left_resp_img.png,"[0.5, 0]",left,stim/gold_coin.png,silver,,,,,training,,,gold,val,,,,,0.0,0.0,0.0,0.0,0.0,1.0,1.0,1.0,,,,,,,,,0.0,training_resp,,56.09789604843536,5.381212964872248,1.0,,left,gold,0.0,217.0,2.0,right,2023_Aug_10_1151,habits_v_MRI,5.0,40.0,1.0,5.0,30.0,15.0,5.0,15.0,30.0,30.0,60.0,RR,60.04523500282045,
25.0,1.0,resp2,stim/left_resp_img.png,"[0.5, 0]",left,stim/gold_coin.png,silver,,,,,training,,,gold,val,,,,,0.0,0.0,0.0,0.0,0.0,1.0,1.0,1.0,,,,,,,,,0.0,training_resp,,56.64788055038662,5.931156119142543,1.0,,left,gold,0.0,217.0,2.0,right,2023_Aug_10_1151,habits_v_MRI,5.0,40.0,1.0,5.0,30.0,15.0,5.0,15.0,30.0,30.0,60.0,RR,60.04523500282045,
25.0,1.0,resp2,stim/left_resp_img.png,"[0.5, 0]",left,stim/gold_coin.png,silver,,,,,training,,,gold,val,,,,,0.0,0.0,0.0,0.0,0.0,1.0,1.0,1.0,,,,,,,,,0.0,training_resp,,57.73107236811484,7.014375795246451,1.0,,left,gold,0.0,217.0,2.0,right,2023_Aug_10_1151,habits_v_MRI,5.0,40.0,1.0,5.0,30.0,15.0,5.0,15.0,30.0,30.0,60.0,RR,60.04523500282045,
25.0,1.0,resp2,stim/left_resp_img.png,"[0.5, 0]",left,stim/gold_coin.png,silver,,,,,training,,,gold,val,,,,,0.0,0.0,0.0,0.0,0.0,1.0,1.0,1.0,,,,,,,,,0.0,training_resp,,58.66425628287834,7.947646804037504,1.0,,left,gold,0.0,217.0,2.0,right,2023_Aug_10_1151,habits_v_MRI,5.0,40.0,1.0,5.0,30.0,15.0,5.0,15.0,30.0,30.0,60.0,RR,60.04523500282045,
25.0,1.0,resp2,stim/left_resp_img.png,"[0.5, 0]",left,stim/gold_coin.png,silver,,,,,training,,,gold,val,,,,,0.0,0.0,0.0,0.0,0.0,1.0,1.0,1.0,,,,,,,,,0.0,training_resp,,60.16423590228078,9.447599738065035,1.0,,left,gold,0.0,217.0,2.0,right,2023_Aug_10_1151,habits_v_MRI,5.0,40.0,1.0,5.0,30.0,15.0,5.0,15.0,30.0,30.0,60.0,RR,60.04523500282045,
25.0,1.0,resp2,stim/left_resp_img.png,"[0.5, 0]",left,stim/gold_coin.png,silver,,,,,training,,,gold,val,,,,,0.0,0.0,0.0,0.0,0.0,1.0,1.0,1.0,,,,,,,,,0.0,training_resp,,61.51419324966264,10.797495210557829,1.0,,left,gold,0.0,217.0,2.0,right,2023_Aug_10_1151,habits_v_MRI,5.0,40.0,1.0,5.0,30.0,15.0,5.0,15.0,30.0,30.0,60.0,RR,60.04523500282045,
25.0,1.0,resp2,stim/left_resp_img.png,"[0.5, 0]",left,stim/gold_coin.png,silver,,,,,training,,,gold,val,,,,,0.0,0.0,0.0,0.0,0.0,1.0,1.0,1.0,,,,,,,,,0.0,training_resp,,62.5307771867665,11.814075042217157,1.0,,left,gold,0.0,217.0,2.0,right,2023_Aug_10_1151,habits_v_MRI,5.0,40.0,1.0,5.0,30.0,15.0,5.0,15.0,30.0,30.0,60.0,RR,60.04523500282045,
25.0,1.0,resp2,stim/left_resp_img.png,"[0.5, 0]",left,stim/gold_coin.png,silver,,,,,training,,,gold,val,,,,,0.0,0.0,0.0,0.0,0.0,1.0,1.0,1.0,,,,,,,,,0.0,training_resp,,63.46410684475268,12.747449566828436,1.0,,left,gold,0.0,217.0,2.0,right,2023_Aug_10_1151,habits_v_MRI,5.0,40.0,1.0,5.0,30.0,15.0,5.0,15.0,30.0,30.0,60.0,RR,60.04523500282045,
25.0,1.0,resp2,stim/left_resp_img.png,"[0.5, 0]",left,stim/gold_coin.png,silver,,,,,training,,,gold,val,,,,,0.0,0.0,0.0,0.0,0.0,1.0,1.0,1.0,,,,,,,,,0.0,training_resp,,64.24731511357822,13.530664873571368,1.0,,left,gold,0.0,217.0,2.0,right,2023_Aug_10_1151,habits_v_MRI,5.0,40.0,1.0,5.0,30.0,15.0,5.0,15.0,30.0,30.0,60.0,RR,60.04523500282045,
25.0,1.0,resp2,stim/left_resp_img.png,"[0.5, 0]",left,stim/gold_coin.png,silver,,,,,training,,,gold,val,,,,,0.0,0.0,0.0,0.0,0.0,1.0,1.0,1.0,,,,,,,,,0.0,training_resp,,64.79732923337724,14.080644097091865,1.0,,left,gold,0.0,217.0,2.0,right,2023_Aug_10_1151,habits_v_MRI,5.0,40.0,1.0,5.0,30.0,15.0,5.0,15.0,30.0,30.0,60.0,RR,60.04523500282045,
25.0,1.0,resp2,stim/left_resp_img.png,"[0.5, 0]",left,stim/gold_coin.png,silver,,,,,training,,,gold,val,,,,,0.0,0.0,0.0,0.0,0.0,1.0,1.0,1.0,,,,,,,,,0.0,training_resp,,65.5306117960572,14.813941028827683,1.0,,left,gold,0.0,217.0,2.0,right,2023_Aug_10_1151,habits_v_MRI,5.0,40.0,1.0,5.0,30.0,15.0,5.0,15.0,30.0,30.0,60.0,RR,60.04523500282045,
25.0,1.0,resp2,stim/left_resp_img.png,"[0.5, 0]",left,stim/gold_coin.png,silver,,,,,training,,,gold,val,,,,,0.0,0.0,0.0,0.0,0.0,1.0,1.0,1.0,,,,,,,,,0.0,training_resp,,68.19701405263913,17.48031542704848,1.0,,left,gold,0.0,217.0,2.0,right,2023_Aug_10_1151,habits_v_MRI,5.0,40.0,1.0,5.0,30.0,15.0,5.0,15.0,30.0,30.0,60.0,RR,60.04523500282045,
25.0,1.0,resp2,stim/left_resp_img.png,"[0.5, 0]",left,stim/gold_coin.png,silver,,,,,training,,,gold,val,,,,,0.0,0.0,0.0,0.0,0.0,1.0,1.0,1.0,,,,,,,,,0.0,training_resp,,69.58063984503679,18.863703103750595,1.0,,left,gold,0.0,217.0,2.0,right,2023_Aug_10_1151,habits_v_MRI,5.0,40.0,1.0,5.0,30.0,15.0,5.0,15.0,30.0,30.0,60.0,RR,60.04523500282045,
25.0,1.0,resp2,stim/left_resp_img.png,"[0.5, 0]",left,stim/gold_coin.png,silver,,,,,training,,,gold,val,,,,,0.0,0.0,0.0,0.0,0.0,1.0,1.0,1.0,,,,,,,,,0.0,training_resp,,70.23025201262499,19.51361320920114,1.0,,left,gold,0.0,217.0,2.0,right,2023_Aug_10_1151,habits_v_MRI,5.0,40.0,1.0,5.0,30.0,15.0,5.0,15.0,30.0,30.0,60.0,RR,60.04523500282045,
25.0,1.0,resp2,stim/left_resp_img.png,"[0.5, 0]",left,stim/gold_coin.png,silver,,,,,training,,,gold,val,,,,,0.0,0.0,0.0,0.0,0.0,1.0,1.0,1.0,,,,,,,,,0.0,training_resp,,71.0301764724718,20.31353033790947,1.0,5.0,left,gold,1.0,217.0,2.0,right,2023_Aug_10_1151,habits_v_MRI,5.0,40.0,1.0,5.0,30.0,15.0,5.0,15.0,30.0,30.0,60.0,RR,60.04523500282045,
25.0,1.0,resp2,stim/left_resp_img.png,"[0.5, 0]",left,stim/gold_coin.png,silver,,,,,training,,,gold,val,,,,,0.0,0.0,0.0,0.0,0.0,1.0,1.0,1.0,,,,,,,,,0.0,training_resp,,72.19685364712495,21.480169977076,1.0,,left,gold,0.0,217.0,2.0,right,2023_Aug_10_1151,habits_v_MRI,5.0,40.0,1.0,5.0,30.0,15.0,5.0,15.0,30.0,30.0,60.0,RR,60.04523500282045,
25.0,1.0,resp2,stim/left_resp_img.png,"[0.5, 0]",left,stim/gold_coin.png,silver,,,,,training,,,gold,val,,,,,0.0,0.0,0.0,0.0,0.0,1.0,1.0,1.0,,,,,,,,,0.0,training_resp,,72.83035283058416,22.113414623061544,1.0,,left,gold,0.0,217.0,2.0,right,2023_Aug_10_1151,habits_v_MRI,5.0,40.0,1.0,5.0,30.0,15.0,5.0,15.0,30.0,30.0,60.0,RR,60.04523500282045,
25.0,1.0,resp2,stim/left_resp_img.png,"[0.5, 0]",left,stim/gold_coin.png,silver,,,,,training,,,gold,val,,,,,0.0,0.0,0.0,0.0,0.0,1.0,1.0,1.0,,,,,,,,,0.0,training_resp,,73.57997916195018,22.86333420035953,1.0,,left,gold,0.0,217.0,2.0,right,2023_Aug_10_1151,habits_v_MRI,5.0,40.0,1.0,5.0,30.0,15.0,5.0,15.0,30.0,30.0,60.0,RR,60.04523500282045,
25.0,1.0,resp2,stim/left_resp_img.png,"[0.5, 0]",left,stim/gold_coin.png,silver,,,,,training,,,gold,val,,,,,0.0,0.0,0.0,0.0,0.0,1.0,1.0,1.0,,,,,,,,,0.0,training_resp,,74.2467453367426,23.53003234209609,1.0,,left,gold,0.0,217.0,2.0,right,2023_Aug_10_1151,habits_v_MRI,5.0,40.0,1.0,5.0,30.0,15.0,5.0,15.0,30.0,30.0,60.0,RR,60.04523500282045,
25.0,1.0,resp2,stim/left_resp_img.png,"[0.5, 0]",left,stim/gold_coin.png,silver,,,,,training,,,gold,val,,,,,0.0,0.0,0.0,0.0,0.0,1.0,1.0,1.0,,,,,,,,,0.0,training_resp,,74.96324191587337,24.246608097630087,1.0,16.0,left,gold,1.0,217.0,2.0,right,2023_Aug_10_1151,habits_v_MRI,5.0,40.0,1.0,5.0,30.0,15.0,5.0,15.0,30.0,30.0,60.0,RR,60.04523500282045,
25.0,1.0,resp2,stim/left_resp_img.png,"[0.5, 0]",left,stim/gold_coin.png,silver,,,,,training,,,gold,val,,,,,0.0,0.0,0.0,0.0,0.0,1.0,1.0,1.0,,,,,,,,,0.0,training_resp,,75.92991363615147,25.21323289856082,1.0,,left,gold,0.0,217.0,2.0,right,2023_Aug_10_1151,habits_v_MRI,5.0,40.0,1.0,5.0,30.0,15.0,5.0,15.0,30.0,30.0,60.0,RR,60.04523500282045,
25.0,1.0,resp2,stim/left_resp_img.png,"[0.5, 0]",left,stim/gold_coin.png,silver,,,,,training,,,gold,val,,,,,0.0,0.0,0.0,0.0,0.0,1.0,1.0,1.0,,,,,,,,,0.0,training_resp,,76.5966015142767,25.879882068213192,1.0,,left,gold,0.0,217.0,2.0,right,2023_Aug_10_1151,habits_v_MRI,5.0,40.0,1.0,5.0,30.0,15.0,5.0,15.0,30.0,30.0,60.0,RR,60.04523500282045,
25.0,1.0,resp2,stim/left_resp_img.png,"[0.5, 0]",left,stim/gold_coin.png,silver,,,,,training,,,gold,val,,,,,0.0,0.0,0.0,0.0,0.0,1.0,1.0,1.0,,,,,,,,,0.0,training_resp,,77.19647887881729,26.479824826616092,1.0,,left,gold,0.0,217.0,2.0,right,2023_Aug_10_1151,habits_v_MRI,5.0,40.0,1.0,5.0,30.0,15.0,5.0,15.0,30.0,30.0,60.0,RR,60.04523500282045,
25.0,1.0,resp2,stim/left_resp_img.png,"[0.5, 0]",left,stim/gold_coin.png,silver,,,,,training,,,gold,val,,,,,0.0,0.0,0.0,0.0,0.0,1.0,1.0,1.0,,,,,,,,,0.0,training_resp,,78.02991782956815,27.313138854588036,1.0,,left,gold,0.0,217.0,2.0,right,2023_Aug_10_1151,habits_v_MRI,5.0,40.0,1.0,5.0,30.0,15.0,5.0,15.0,30.0,30.0,60.0,RR,60.04523500282045,
25.0,1.0,resp2,stim/left_resp_img.png,"[0.5, 0]",left,stim/gold_coin.png,silver,,,,,training,,,gold,val,,,,,0.0,0.0,0.0,0.0,0.0,1.0,1.0,1.0,,,,,,,,,0.0,training_resp,,78.87975714546337,28.16304884274723,1.0,,left,gold,0.0,217.0,2.0,right,2023_Aug_10_1151,habits_v_MRI,5.0,40.0,1.0,5.0,30.0,15.0,5.0,15.0,30.0,30.0,60.0,RR,60.04523500282045,
25.0,1.0,resp2,stim/left_resp_img.png,"[0.5, 0]",left,stim/gold_coin.png,silver,,,,,training,,,gold,val,,,,,0.0,0.0,0.0,0.0,0.0,1.0,1.0,1.0,,,,,,,,,0.0,training_resp,,79.4130204712128,28.69633885388612,1.0,,left,gold,0.0,217.0,2.0,right,2023_Aug_10_1151,habits_v_MRI,5.0,40.0,1.0,5.0,30.0,15.0,5.0,15.0,30.0,30.0,60.0,RR,60.04523500282045,
25.0,1.0,resp2,stim/left_resp_img.png,"[0.5, 0]",left,stim/gold_coin.png,silver,,,,,training,,,gold,val,,,,,0.0,0.0,0.0,0.0,0.0,1.0,1.0,1.0,,,,,,,,,0.0,training_resp,,80.09651163438684,29.379647911337088,1.0,,left,gold,0.0,217.0,2.0,right,2023_Aug_10_1151,habits_v_MRI,5.0,40.0,1.0,5.0,30.0,15.0,5.0,15.0,30.0,30.0,60.0,RR,60.04523500282045,
25.0,1.0,resp2,stim/left_resp_img.png,"[0.5, 0]",left,stim/gold_coin.png,silver,,,,,training,,,gold,val,,,,,0.0,0.0,0.0,0.0,0.0,1.0,1.0,1.0,,,,,,,,,0.0,training_resp,,81.76325640222058,31.046202655808884,1.0,,left,gold,0.0,217.0,2.0,right,2023_Aug_10_1151,habits_v_MRI,5.0,40.0,1.0,5.0,30.0,15.0,5.0,15.0,30.0,30.0,60.0,RR,60.04523500282045,
25.0,1.0,resp2,stim/left_resp_img.png,"[0.5, 0]",left,stim/gold_coin.png,silver,,,,,training,,,gold,val,,,,,0.0,0.0,0.0,0.0,0.0,1.0,1.0,1.0,,,,,,,,,0.0,training_resp,,82.84756607344025,32.12947189046827,1.0,,left,gold,0.0,217.0,2.0,right,2023_Aug_10_1151,habits_v_MRI,5.0,40.0,1.0,5.0,30.0,15.0,5.0,15.0,30.0,30.0,60.0,RR,60.04523500282045,
25.0,1.0,resp2,stim/left_resp_img.png,"[0.5, 0]",left,stim/gold_coin.png,silver,,,,,training,,,gold,val,,,,,0.0,0.0,0.0,0.0,0.0,1.0,1.0,1.0,,,,,,,,,0.0,training_resp,,83.84614705639251,33.129395060037496,1.0,,left,gold,0.0,217.0,2.0,right,2023_Aug_10_1151,habits_v_MRI,5.0,40.0,1.0,5.0,30.0,15.0,5.0,15.0,30.0,30.0,60.0,RR,60.04523500282045,
25.0,1.0,resp2,stim/left_resp_img.png,"[0.5, 0]",left,stim/gold_coin.png,silver,,,,,training,,,gold,val,,,,,0.0,0.0,0.0,0.0,0.0,1.0,1.0,1.0,,,,,,,,,0.0,training_resp,,85.11265247689153,34.39594739988388,1.0,,left,gold,0.0,217.0,2.0,right,2023_Aug_10_1151,habits_v_MRI,5.0,40.0,1.0,5.0,30.0,15.0,5.0,15.0,30.0,30.0,60.0,RR,60.04523500282045,
25.0,1.0,resp2,stim/left_resp_img.png,"[0.5, 0]",left,stim/gold_coin.png,silver,,,,,training,,,gold,val,,,,,0.0,0.0,0.0,0.0,0.0,1.0,1.0,1.0,,,,,,,,,0.0,training_resp,,86.29589804660645,35.57922434691864,1.0,,left,gold,0.0,217.0,2.0,right,2023_Aug_10_1151,habits_v_MRI,5.0,40.0,1.0,5.0,30.0,15.0,5.0,15.0,30.0,30.0,60.0,RR,60.04523500282045,
25.0,1.0,resp2,stim/left_resp_img.png,"[0.5, 0]",left,stim/gold_coin.png,silver,,,,,training,,,gold,val,,,,,0.0,0.0,0.0,0.0,0.0,1.0,1.0,1.0,,,,,,,,,0.0,training_resp,,87.81257450279372,37.095836582258926,1.0,,left,gold,0.0,217.0,2.0,right,2023_Aug_10_1151,habits_v_MRI,5.0,40.0,1.0,5.0,30.0,15.0,5.0,15.0,30.0,30.0,60.0,RR,60.04523500282045,
25.0,1.0,resp2,stim/left_resp_img.png,"[0.5, 0]",left,stim/gold_coin.png,silver,,,,,training,,,gold,val,,,,,0.0,0.0,0.0,0.0,0.0,1.0,1.0,1.0,,,,,,,,,0.0,training_resp,,88.46254325745394,37.74582703709893,1.0,,left,gold,0.0,217.0,2.0,right,2023_Aug_10_1151,habits_v_MRI,5.0,40.0,1.0,5.0,30.0,15.0,5.0,15.0,30.0,30.0,60.0,RR,60.04523500282045,
25.0,1.0,resp2,stim/left_resp_img.png,"[0.5, 0]",left,stim/gold_coin.png,silver,,,,,training,,,gold,val,,,,,0.0,0.0,0.0,0.0,0.0,1.0,1.0,1.0,,,,,,,,,0.0,training_resp,,89.42910207803652,38.71235125466774,1.0,,left,gold,0.0,217.0,2.0,right,2023_Aug_10_1151,habits_v_MRI,5.0,40.0,1.0,5.0,30.0,15.0,5.0,15.0,30.0,30.0,60.0,RR,60.04523500282045,
25.0,1.0,resp2,stim/left_resp_img.png,"[0.5, 0]",left,stim/gold_coin.png,silver,,,,,training,,,gold,val,,,,,0.0,0.0,0.0,0.0,0.0,1.0,1.0,1.0,,,,,,,,,0.0,training_resp,,89.92905383907782,39.21232090370904,1.0,13.0,left,gold,1.0,217.0,2.0,right,2023_Aug_10_1151,habits_v_MRI,5.0,40.0,1.0,5.0,30.0,15.0,5.0,15.0,30.0,30.0,60.0,RR,60.04523500282045,
25.0,1.0,resp2,stim/left_resp_img.png,"[0.5, 0]",left,stim/gold_coin.png,silver,,,,,training,,,gold,val,,,,,0.0,0.0,0.0,0.0,0.0,1.0,1.0,1.0,,,,,,,,,0.0,training_resp,,90.62890079403589,39.91224644856993,1.0,,left,gold,0.0,217.0,2.0,right,2023_Aug_10_1151,habits_v_MRI,5.0,40.0,1.0,5.0,30.0,15.0,5.0,15.0,30.0,30.0,60.0,RR,60.04523500282045,
25.0,1.0,resp2,stim/left_resp_img.png,"[0.5, 0]",left,stim/gold_coin.png,silver,,,,,training,,,gold,val,,,,,0.0,0.0,0.0,0.0,0.0,1.0,1.0,1.0,,,,,,,,,0.0,training_resp,,91.16242950735614,40.44569569225132,1.0,,left,gold,0.0,217.0,2.0,right,2023_Aug_10_1151,habits_v_MRI,5.0,40.0,1.0,5.0,30.0,15.0,5.0,15.0,30.0,30.0,60.0,RR,60.04523500282045,
25.0,1.0,resp2,stim/left_resp_img.png,"[0.5, 0]",left,stim/gold_coin.png,silver,,,,,training,,,gold,val,,,,,0.0,0.0,0.0,0.0,0.0,1.0,1.0,1.0,,,,,,,,,0.0,training_resp,,91.71234069782076,40.99559280691028,1.0,,left,gold,0.0,217.0,2.0,right,2023_Aug_10_1151,habits_v_MRI,5.0,40.0,1.0,5.0,30.0,15.0,5.0,15.0,30.0,30.0,60.0,RR,60.04523500282045,
25.0,1.0,resp2,stim/left_resp_img.png,"[0.5, 0]",left,stim/gold_coin.png,silver,,,,,training,,,gold,val,,,,,0.0,0.0,0.0,0.0,0.0,1.0,1.0,1.0,,,,,,,,,0.0,training_resp,,92.49563723367464,41.77889286172285,1.0,,left,gold,0.0,217.0,2.0,right,2023_Aug_10_1151,habits_v_MRI,5.0,40.0,1.0,5.0,30.0,15.0,5.0,15.0,30.0,30.0,60.0,RR,60.04523500282045,
25.0,1.0,resp2,stim/left_resp_img.png,"[0.5, 0]",left,stim/gold_coin.png,silver,,,,,training,,,gold,val,,,,,0.0,0.0,0.0,0.0,0.0,1.0,1.0,1.0,,,,,,,,,0.0,training_resp,,93.22875587189628,42.51211941443034,1.0,,left,gold,0.0,217.0,2.0,right,2023_Aug_10_1151,habits_v_MRI,5.0,40.0,1.0,5.0,30.0,15.0,5.0,15.0,30.0,30.0,60.0,RR,60.04523500282045,
25.0,1.0,resp2,stim/left_resp_img.png,"[0.5, 0]",left,stim/gold_coin.png,silver,,,,,training,,,gold,val,,,,,0.0,0.0,0.0,0.0,0.0,1.0,1.0,1.0,,,,,,,,,0.0,training_resp,,94.17872577019445,43.46205353674304,1.0,,left,gold,0.0,217.0,2.0,right,2023_Aug_10_1151,habits_v_MRI,5.0,40.0,1.0,5.0,30.0,15.0,5.0,15.0,30.0,30.0,60.0,RR,60.04523500282045,
25.0,1.0,resp2,stim/left_resp_img.png,"[0.5, 0]",left,stim/gold_coin.png,silver,,,,,training,,,gold,val,,,,,0.0,0.0,0.0,0.0,0.0,1.0,1.0,1.0,,,,,,,,,0.0,training_resp,,94.8454412134306,44.12869772121485,1.0,,left,gold,0.0,217.0,2.0,right,2023_Aug_10_1151,habits_v_MRI,5.0,40.0,1.0,5.0,30.0,15.0,5.0,15.0,30.0,30.0,60.0,RR,60.04523500282045,
25.0,1.0,resp2,stim/left_resp_img.png,"[0.5, 0]",left,stim/gold_coin.png,silver,,,,,training,,,gold,val,,,,,0.0,0.0,0.0,0.0,0.0,1.0,1.0,1.0,,,,,,,,,0.0,ITI_start,28.333333333333336,95.39606176581584,44.67864703365194,,,,,,217.0,2.0,right,2023_Aug_10_1151,habits_v_MRI,5.0,40.0,1.0,5.0,30.0,15.0,5.0,15.0,30.0,30.0,60.0,RR,60.04523500282045,
25.0,0.0,resp1,stim/right_resp_img.png,"[-0.5, 0]",right,stim/silver_coin.png,silver,,,,,training,,,silver,deval,,,,,0.0,0.0,0.0,0.0,1.0,0.0,2.0,0.0,,,,,,,,,0.0,training_period_start,52.5,123.7644604700181,0.0,2.0,14.0,,,,217.0,2.0,right,2023_Aug_10_1151,habits_v_MRI,5.0,40.0,1.0,5.0,30.0,15.0,5.0,15.0,30.0,30.0,60.0,RR,60.04523500282045,
25.0,0.0,resp1,stim/right_resp_img.png,"[-0.5, 0]",right,stim/silver_coin.png,silver,,,,,training,,,silver,deval,,,,,0.0,0.0,0.0,0.0,1.0,0.0,2.0,0.0,,,,,,,,,0.0,training_resp,,125.17646425757266,1.431296730574104,2.0,,right,silver,0.0,217.0,2.0,right,2023_Aug_10_1151,habits_v_MRI,5.0,40.0,1.0,5.0,30.0,15.0,5.0,15.0,30.0,30.0,60.0,RR,60.04523500282045,
25.0,0.0,resp1,stim/right_resp_img.png,"[-0.5, 0]",right,stim/silver_coin.png,silver,,,,,training,,,silver,deval,,,,,0.0,0.0,0.0,0.0,1.0,0.0,2.0,0.0,,,,,,,,,0.0,training_resp,,126.15985158237164,2.414660595692112,2.0,,right,silver,0.0,217.0,2.0,right,2023_Aug_10_1151,habits_v_MRI,5.0,40.0,1.0,5.0,30.0,15.0,5.0,15.0,30.0,30.0,60.0,RR,60.04523500282045,
25.0,0.0,resp1,stim/right_resp_img.png,"[-0.5, 0]",right,stim/silver_coin.png,silver,,,,,training,,,silver,deval,,,,,0.0,0.0,0.0,0.0,1.0,0.0,2.0,0.0,,,,,,,,,0.0,training_resp,,126.74336318479618,2.998046982102096,2.0,,right,silver,0.0,217.0,2.0,right,2023_Aug_10_1151,habits_v_MRI,5.0,40.0,1.0,5.0,30.0,15.0,5.0,15.0,30.0,30.0,60.0,RR,60.04523500282045,
25.0,0.0,resp1,stim/right_resp_img.png,"[-0.5, 0]",right,stim/silver_coin.png,silver,,,,,training,,,silver,deval,,,,,0.0,0.0,0.0,0.0,1.0,0.0,2.0,0.0,,,,,,,,,0.0,training_resp,,128.09333255526144,4.347926912567345,2.0,,right,silver,0.0,217.0,2.0,right,2023_Aug_10_1151,habits_v_MRI,5.0,40.0,1.0,5.0,30.0,15.0,5.0,15.0,30.0,30.0,60.0,RR,60.04523500282045,
25.0,0.0,resp1,stim/right_resp_img.png,"[-0.5, 0]",right,stim/silver_coin.png,silver,,,,,training,,,silver,deval,,,,,0.0,0.0,0.0,0.0,1.0,0.0,2.0,0.0,,,,,,,,,0.0,training_resp,,129.05987642030232,5.31456637577503,2.0,,right,silver,0.0,217.0,2.0,right,2023_Aug_10_1151,habits_v_MRI,5.0,40.0,1.0,5.0,30.0,15.0,5.0,15.0,30.0,30.0,60.0,RR,60.04523500282045,
25.0,0.0,resp1,stim/right_resp_img.png,"[-0.5, 0]",right,stim/silver_coin.png,silver,,,,,training,,,silver,deval,,,,,0.0,0.0,0.0,0.0,1.0,0.0,2.0,0.0,,,,,,,,,0.0,training_resp,,129.9098051762121,6.164498943879153,2.0,,right,silver,0.0,217.0,2.0,right,2023_Aug_10_1151,habits_v_MRI,5.0,40.0,1.0,5.0,30.0,15.0,5.0,15.0,30.0,30.0,60.0,RR,60.04523500282045,
25.0,0.0,resp1,stim/right_resp_img.png,"[-0.5, 0]",right,stim/silver_coin.png,silver,,,,,training,,,silver,deval,,,,,0.0,0.0,0.0,0.0,1.0,0.0,2.0,0.0,,,,,,,,,0.0,training_resp,,130.45983395830262,6.714494002677384,2.0,,right,silver,0.0,217.0,2.0,right,2023_Aug_10_1151,habits_v_MRI,5.0,40.0,1.0,5.0,30.0,15.0,5.0,15.0,30.0,30.0,60.0,RR,60.04523500282045,
25.0,0.0,resp1,stim/right_resp_img.png,"[-0.5, 0]",right,stim/silver_coin.png,silver,,,,,training,,,silver,deval,,,,,0.0,0.0,0.0,0.0,1.0,0.0,2.0,0.0,,,,,,,,,0.0,training_resp,,130.95977017730183,7.214434033885482,2.0,,right,silver,0.0,217.0,2.0,right,2023_Aug_10_1151,habits_v_MRI,5.0,40.0,1.0,5.0,30.0,15.0,5.0,15.0,30.0,30.0,60.0,RR,60.04523500282045,
25.0,0.0,resp1,stim/right_resp_img.png,"[-0.5, 0]",right,stim/silver_coin.png,silver,,,,,training,,,silver,deval,,,,,0.0,0.0,0.0,0.0,1.0,0.0,2.0,0.0,,,,,,,,,0.0,training_resp,,132.04301712528104,8.297683034586953,2.0,,right,silver,0.0,217.0,2.0,right,2023_Aug_10_1151,habits_v_MRI,5.0,40.0,1.0,5.0,30.0,15.0,5.0,15.0,30.0,30.0,60.0,RR,60.04523500282045,
25.0,0.0,resp1,stim/right_resp_img.png,"[-0.5, 0]",right,stim/silver_coin.png,silver,,,,,training,,,silver,deval,,,,,0.0,0.0,0.0,0.0,1.0,0.0,2.0,0.0,,,,,,,,,0.0,training_resp,,133.57648103125393,9.830942841392243,2.0,,right,silver,0.0,217.0,2.0,right,2023_Aug_10_1151,habits_v_MRI,5.0,40.0,1.0,5.0,30.0,15.0,5.0,15.0,30.0,30.0,60.0,RR,60.04523500282045,
25.0,0.0,resp1,stim/right_resp_img.png,"[-0.5, 0]",right,stim/silver_coin.png,silver,,,,,training,,,silver,deval,,,,,0.0,0.0,0.0,0.0,1.0,0.0,2.0,0.0,,,,,,,,,0.0,training_resp,,134.526190820412,10.780849985065288,2.0,,right,silver,0.0,217.0,2.0,right,2023_Aug_10_1151,habits_v_MRI,5.0,40.0,1.0,5.0,30.0,15.0,5.0,15.0,30.0,30.0,60.0,RR,60.04523500282045,
25.0,0.0,resp1,stim/right_resp_img.png,"[-0.5, 0]",right,stim/silver_coin.png,silver,,,,,training,,,silver,deval,,,,,0.0,0.0,0.0,0.0,1.0,0.0,2.0,0.0,,,,,,,,,0.0,training_resp,,135.09297274251003,11.347572084981948,2.0,,right,silver,0.0,217.0,2.0,right,2023_Aug_10_1151,habits_v_MRI,5.0,40.0,1.0,5.0,30.0,15.0,5.0,15.0,30.0,30.0,60.0,RR,60.04523500282045,
25.0,0.0,resp1,stim/right_resp_img.png,"[-0.5, 0]",right,stim/silver_coin.png,silver,,,,,training,,,silver,deval,,,,,0.0,0.0,0.0,0.0,1.0,0.0,2.0,0.0,,,,,,,,,0.0,training_resp,,135.69298646641255,11.947496368884458,2.0,,right,silver,0.0,217.0,2.0,right,2023_Aug_10_1151,habits_v_MRI,5.0,40.0,1.0,5.0,30.0,15.0,5.0,15.0,30.0,30.0,60.0,RR,60.04523500282045,
25.0,0.0,resp1,stim/right_resp_img.png,"[-0.5, 0]",right,stim/silver_coin.png,silver,,,,,training,,,silver,deval,,,,,0.0,0.0,0.0,0.0,1.0,0.0,2.0,0.0,,,,,,,,,0.0,training_resp,,136.17607130802935,12.430738097071298,2.0,20.0,right,silver,1.0,217.0,2.0,right,2023_Aug_10_1151,habits_v_MRI,5.0,40.0,1.0,5.0,30.0,15.0,5.0,15.0,30.0,30.0,60.0,RR,60.04523500282045,
25.0,0.0,resp1,stim/right_resp_img.png,"[-0.5, 0]",right,stim/silver_coin.png,silver,,,,,training,,,silver,deval,,,,,0.0,0.0,0.0,0.0,1.0,0.0,2.0,0.0,,,,,,,,,0.0,training_resp,,136.97611893116846,13.230737627876806,2.0,,right,silver,0.0,217.0,2.0,right,2023_Aug_10_1151,habits_v_MRI,5.0,40.0,1.0,5.0,30.0,15.0,5.0,15.0,30.0,30.0,60.0,RR,60.04523500282045,
25.0,0.0,resp1,stim/right_resp_img.png,"[-0.5, 0]",right,stim/silver_coin.png,silver,,,,,training,,,silver,deval,,,,,0.0,0.0,0.0,0.0,1.0,0.0,2.0,0.0,,,,,,,,,0.0,training_resp,,137.5427574560017,13.797389055544045,2.0,,right,silver,0.0,217.0,2.0,right,2023_Aug_10_1151,habits_v_MRI,5.0,40.0,1.0,5.0,30.0,15.0,5.0,15.0,30.0,30.0,60.0,RR,60.04523500282045,
25.0,0.0,resp1,stim/right_resp_img.png,"[-0.5, 0]",right,stim/silver_coin.png,silver,,,,,training,,,silver,deval,,,,,0.0,0.0,0.0,0.0,1.0,0.0,2.0,0.0,,,,,,,,,0.0,training_resp,,138.07599263015436,14.33071337644651,2.0,,right,silver,0.0,217.0,2.0,right,2023_Aug_10_1151,habits_v_MRI,5.0,40.0,1.0,5.0,30.0,15.0,5.0,15.0,30.0,30.0,60.0,RR,60.04523500282045,
25.0,0.0,resp1,stim/right_resp_img.png,"[-0.5, 0]",right,stim/silver_coin.png,silver,,,,,training,,,silver,deval,,,,,0.0,0.0,0.0,0.0,1.0,0.0,2.0,0.0,,,,,,,,,0.0,training_resp,,138.62597068068862,14.880673538980773,2.0,,right,silver,0.0,217.0,2.0,right,2023_Aug_10_1151,habits_v_MRI,5.0,40.0,1.0,5.0,30.0,15.0,5.0,15.0,30.0,30.0,60.0,RR,60.04523500282045,
25.0,0.0,resp1,stim/right_resp_img.png,"[-0.5, 0]",right,stim/silver_coin.png,silver,,,,,training,,,silver,deval,,,,,0.0,0.0,0.0,0.0,1.0,0.0,2.0,0.0,,,,,,,,,0.0,training_resp,,140.20923273082008,16.46384409638995,2.0,,right,silver,0.0,217.0,2.0,right,2023_Aug_10_1151,habits_v_MRI,5.0,40.0,1.0,5.0,30.0,15.0,5.0,15.0,30.0,30.0,60.0,RR,60.04523500282045,
25.0,0.0,resp1,stim/right_resp_img.png,"[-0.5, 0]",right,stim/silver_coin.png,silver,,,,,training,,,silver,deval,,,,,0.0,0.0,0.0,0.0,1.0,0.0,2.0,0.0,,,,,,,,,0.0,training_resp,,140.75914714700775,17.013798100771965,2.0,,right,silver,0.0,217.0,2.0,right,2023_Aug_10_1151,habits_v_MRI,5.0,40.0,1.0,5.0,30.0,15.0,5.0,15.0,30.0,30.0,60.0,RR,60.04523500282045,
25.0,0.0,resp1,stim/right_resp_img.png,"[-0.5, 0]",right,stim/silver_coin.png,silver,,,,,training,,,silver,deval,,,,,0.0,0.0,0.0,0.0,1.0,0.0,2.0,0.0,,,,,,,,,0.0,training_resp,,141.37592251504248,17.630449719028547,2.0,,right,silver,0.0,217.0,2.0,right,2023_Aug_10_1151,habits_v_MRI,5.0,40.0,1.0,5.0,30.0,15.0,5.0,15.0,30.0,30.0,60.0,RR,60.04523500282045,
25.0,0.0,resp1,stim/right_resp_img.png,"[-0.5, 0]",right,stim/silver_coin.png,silver,,,,,training,,,silver,deval,,,,,0.0,0.0,0.0,0.0,1.0,0.0,2.0,0.0,,,,,,,,,0.0,training_resp,,141.92572168557672,18.180431288521504,2.0,,right,silver,0.0,217.0,2.0,right,2023_Aug_10_1151,habits_v_MRI,5.0,40.0,1.0,5.0,30.0,15.0,5.0,15.0,30.0,30.0,60.0,RR,60.04523500282045,
25.0,0.0,resp1,stim/right_resp_img.png,"[-0.5, 0]",right,stim/silver_coin.png,silver,,,,,training,,,silver,deval,,,,,0.0,0.0,0.0,0.0,1.0,0.0,2.0,0.0,,,,,,,,,0.0,training_resp,,142.9590549504792,19.213680391854723,2.0,,right,silver,0.0,217.0,2.0,right,2023_Aug_10_1151,habits_v_MRI,5.0,40.0,1.0,5.0,30.0,15.0,5.0,15.0,30.0,30.0,60.0,RR,60.04523500282045,
25.0,0.0,resp1,stim/right_resp_img.png,"[-0.5, 0]",right,stim/silver_coin.png,silver,,,,,training,,,silver,deval,,,,,0.0,0.0,0.0,0.0,1.0,0.0,2.0,0.0,,,,,,,,,0.0,training_resp,,143.90903423265263,20.163665832194965,2.0,,right,silver,0.0,217.0,2.0,right,2023_Aug_10_1151,habits_v_MRI,5.0,40.0,1.0,5.0,30.0,15.0,5.0,15.0,30.0,30.0,60.0,RR,60.04523500282045,
25.0,0.0,resp1,stim/right_resp_img.png,"[-0.5, 0]",right,stim/silver_coin.png,silver,,,,,training,,,silver,deval,,,,,0.0,0.0,0.0,0.0,1.0,0.0,2.0,0.0,,,,,,,,,0.0,training_resp,,145.2589041927422,21.51353051385377,2.0,,right,silver,0.0,217.0,2.0,right,2023_Aug_10_1151,habits_v_MRI,5.0,40.0,1.0,5.0,30.0,15.0,5.0,15.0,30.0,30.0,60.0,RR,60.04523500282045,
25.0,0.0,resp1,stim/right_resp_img.png,"[-0.5, 0]",right,stim/silver_coin.png,silver,,,,,training,,,silver,deval,,,,,0.0,0.0,0.0,0.0,1.0,0.0,2.0,0.0,,,,,,,,,0.0,training_resp,,146.20895473368,22.463476952485507,2.0,,right,silver,0.0,217.0,2.0,right,2023_Aug_10_1151,habits_v_MRI,5.0,40.0,1.0,5.0,30.0,15.0,5.0,15.0,30.0,30.0,60.0,RR,60.04523500282045,
25.0,0.0,resp1,stim/right_resp_img.png,"[-0.5, 0]",right,stim/silver_coin.png,silver,,,,,training,,,silver,deval,,,,,0.0,0.0,0.0,0.0,1.0,0.0,2.0,0.0,,,,,,,,,0.0,training_resp,,146.8588944569783,23.11341051761701,2.0,,right,silver,0.0,217.0,2.0,right,2023_Aug_10_1151,habits_v_MRI,5.0,40.0,1.0,5.0,30.0,15.0,5.0,15.0,30.0,30.0,60.0,RR,60.04523500282045,
25.0,0.0,resp1,stim/right_resp_img.png,"[-0.5, 0]",right,stim/silver_coin.png,silver,,,,,training,,,silver,deval,,,,,0.0,0.0,0.0,0.0,1.0,0.0,2.0,0.0,,,,,,,,,0.0,training_resp,,147.37532106765138,23.630080229151645,2.0,,right,silver,0.0,217.0,2.0,right,2023_Aug_10_1151,habits_v_MRI,5.0,40.0,1.0,5.0,30.0,15.0,5.0,15.0,30.0,30.0,60.0,RR,60.04523500282045,
25.0,0.0,resp1,stim/right_resp_img.png,"[-0.5, 0]",right,stim/silver_coin.png,silver,,,,,training,,,silver,deval,,,,,0.0,0.0,0.0,0.0,1.0,0.0,2.0,0.0,,,,,,,,,0.0,training_resp,,147.89209869368642,24.14674994070083,2.0,,right,silver,0.0,217.0,2.0,right,2023_Aug_10_1151,habits_v_MRI,5.0,40.0,1.0,5.0,30.0,15.0,5.0,15.0,30.0,30.0,60.0,RR,60.04523500282045,
25.0,0.0,resp1,stim/right_resp_img.png,"[-0.5, 0]",right,stim/silver_coin.png,silver,,,,,training,,,silver,deval,,,,,0.0,0.0,0.0,0.0,1.0,0.0,2.0,0.0,,,,,,,,,0.0,training_resp,,148.40861797005346,24.663329918970703,2.0,,right,silver,0.0,217.0,2.0,right,2023_Aug_10_1151,habits_v_MRI,5.0,40.0,1.0,5.0,30.0,15.0,5.0,15.0,30.0,30.0,60.0,RR,60.04523500282045,
25.0,0.0,resp1,stim/right_resp_img.png,"[-0.5, 0]",right,stim/silver_coin.png,silver,,,,,training,,,silver,deval,,,,,0.0,0.0,0.0,0.0,1.0,0.0,2.0,0.0,,,,,,,,,0.0,training_resp,,149.22528853200492,25.479971742825,2.0,,right,silver,0.0,217.0,2.0,right,2023_Aug_10_1151,habits_v_MRI,5.0,40.0,1.0,5.0,30.0,15.0,5.0,15.0,30.0,30.0,60.0,RR,60.04523500282045,
25.0,0.0,resp1,stim/right_resp_img.png,"[-0.5, 0]",right,stim/silver_coin.png,silver,,,,,training,,,silver,deval,,,,,0.0,0.0,0.0,0.0,1.0,0.0,2.0,0.0,,,,,,,,,0.0,training_resp,,150.19188606106036,26.446565166435903,2.0,,right,silver,0.0,217.0,2.0,right,2023_Aug_10_1151,habits_v_MRI,5.0,40.0,1.0,5.0,30.0,15.0,5.0,15.0,30.0,30.0,60.0,RR,60.04523500282045,
25.0,0.0,resp1,stim/right_resp_img.png,"[-0.5, 0]",right,stim/silver_coin.png,silver,,,,,training,,,silver,deval,,,,,0.0,0.0,0.0,0.0,1.0,0.0,2.0,0.0,,,,,,,,,0.0,training_resp,,150.72517695193528,26.97983406386629,2.0,,right,silver,0.0,217.0,2.0,right,2023_Aug_10_1151,habits_v_MRI,5.0,40.0,1.0,5.0,30.0,15.0,5.0,15.0,30.0,30.0,60.0,RR,60.04523500282045,
25.0,0.0,resp1,stim/right_resp_img.png,"[-0.5, 0]",right,stim/silver_coin.png,silver,,,,,training,,,silver,deval,,,,,0.0,0.0,0.0,0.0,1.0,0.0,2.0,0.0,,,,,,,,,0.0,training_resp,,151.35843420749006,27.61313002789393,2.0,9.0,right,silver,1.0,217.0,2.0,right,2023_Aug_10_1151,habits_v_MRI,5.0,40.0,1.0,5.0,30.0,15.0,5.0,15.0,30.0,30.0,60.0,RR,60.04523500282045,
25.0,0.0,resp1,stim/right_resp_img.png,"[-0.5, 0]",right,stim/silver_coin.png,silver,,,,,training,,,silver,deval,,,,,0.0,0.0,0.0,0.0,1.0,0.0,2.0,0.0,,,,,,,,,0.0,training_resp,,152.3584321547678,28.613103929004865,2.0,,right,silver,0.0,217.0,2.0,right,2023_Aug_10_1151,habits_v_MRI,5.0,40.0,1.0,5.0,30.0,15.0,5.0,15.0,30.0,30.0,60.0,RR,60.04523500282045,
25.0,0.0,resp1,stim/right_resp_img.png,"[-0.5, 0]",right,stim/silver_coin.png,silver,,,,,training,,,silver,deval,,,,,0.0,0.0,0.0,0.0,1.0,0.0,2.0,0.0,,,,,,,,,0.0,training_resp,,153.05848174265702,29.31301275883743,2.0,,right,silver,0.0,217.0,2.0,right,2023_Aug_10_1151,habits_v_MRI,5.0,40.0,1.0,5.0,30.0,15.0,5.0,15.0,30.0,30.0,60.0,RR,60.04523500282045,
25.0,0.0,resp1,stim/right_resp_img.png,"[-0.5, 0]",right,stim/silver_coin.png,silver,,,,,training,,,silver,deval,,,,,0.0,0.0,0.0,0.0,1.0,0.0,2.0,0.0,,,,,,,,,0.0,training_resp,,153.60851052474754,29.863017788011348,2.0,,right,silver,0.0,217.0,2.0,right,2023_Aug_10_1151,habits_v_MRI,5.0,40.0,1.0,5.0,30.0,15.0,5.0,15.0,30.0,30.0,60.0,RR,60.04523500282045,
25.0,0.0,resp1,stim/right_resp_img.png,"[-0.5, 0]",right,stim/silver_coin.png,silver,,,,,training,,,silver,deval,,,,,0.0,0.0,0.0,0.0,1.0,0.0,2.0,0.0,,,,,,,,,0.0,training_resp,,154.7749355078995,31.02958294270502,2.0,,right,silver,0.0,217.0,2.0,right,2023_Aug_10_1151,habits_v_MRI,5.0,40.0,1.0,5.0,30.0,15.0,5.0,15.0,30.0,30.0,60.0,RR,60.04523500282045,
25.0,0.0,resp1,stim/right_resp_img.png,"[-0.5, 0]",right,stim/silver_coin.png,silver,,,,,training,,,silver,deval,,,,,0.0,0.0,0.0,0.0,1.0,0.0,2.0,0.0,,,,,,,,,0.0,training_resp,,155.34153033907933,31.5962557773164,2.0,,right,silver,0.0,217.0,2.0,right,2023_Aug_10_1151,habits_v_MRI,5.0,40.0,1.0,5.0,30.0,15.0,5.0,15.0,30.0,30.0,60.0,RR,60.04523500282045,
25.0,0.0,resp1,stim/right_resp_img.png,"[-0.5, 0]",right,stim/silver_coin.png,silver,,,,,training,,,silver,deval,,,,,0.0,0.0,0.0,0.0,1.0,0.0,2.0,0.0,,,,,,,,,0.0,training_resp,,155.9915504117671,32.24626118769811,2.0,,right,silver,0.0,217.0,2.0,right,2023_Aug_10_1151,habits_v_MRI,5.0,40.0,1.0,5.0,30.0,15.0,5.0,15.0,30.0,30.0,60.0,RR,60.04523500282045,
25.0,0.0,resp1,stim/right_resp_img.png,"[-0.5, 0]",right,stim/silver_coin.png,silver,,,,,training,,,silver,deval,,,,,0.0,0.0,0.0,0.0,1.0,0.0,2.0,0.0,,,,,,,,,0.0,training_resp,,156.5248427688639,32.779535656794906,2.0,,right,silver,0.0,217.0,2.0,right,2023_Aug_10_1151,habits_v_MRI,5.0,40.0,1.0,5.0,30.0,15.0,5.0,15.0,30.0,30.0,60.0,RR,60.04523500282045,
25.0,0.0,resp1,stim/right_resp_img.png,"[-0.5, 0]",right,stim/silver_coin.png,silver,,,,,training,,,silver,deval,,,,,0.0,0.0,0.0,0.0,1.0,0.0,2.0,0.0,,,,,,,,,0.0,training_resp,,157.14145626516256,33.3961145500798,2.0,,right,silver,0.0,217.0,2.0,right,2023_Aug_10_1151,habits_v_MRI,5.0,40.0,1.0,5.0,30.0,15.0,5.0,15.0,30.0,30.0,60.0,RR,60.04523500282045,
25.0,0.0,resp1,stim/right_resp_img.png,"[-0.5, 0]",right,stim/silver_coin.png,silver,,,,,training,,,silver,deval,,,,,0.0,0.0,0.0,0.0,1.0,0.0,2.0,0.0,,,,,,,,,0.0,training_resp,,157.80807904269022,34.062728236982366,2.0,16.0,right,silver,1.0,217.0,2.0,right,2023_Aug_10_1151,habits_v_MRI,5.0,40.0,1.0,5.0,30.0,15.0,5.0,15.0,30.0,30.0,60.0,RR,60.04523500282045,
25.0,0.0,resp1,stim/right_resp_img.png,"[-0.5, 0]",right,stim/silver_coin.png,silver,,,,,training,,,silver,deval,,,,,0.0,0.0,0.0,0.0,1.0,0.0,2.0,0.0,,,,,,,,,0.0,training_resp,,158.95804237228003,35.212727049336536,2.0,,right,silver,0.0,217.0,2.0,right,2023_Aug_10_1151,habits_v_MRI,5.0,40.0,1.0,5.0,30.0,15.0,5.0,15.0,30.0,30.0,60.0,RR,60.04523500282045,
25.0,0.0,resp1,stim/right_resp_img.png,"[-0.5, 0]",right,stim/silver_coin.png,silver,,,,,training,,,silver,deval,,,,,0.0,0.0,0.0,0.0,1.0,0.0,2.0,0.0,,,,,,,,,0.0,training_resp,,159.6746536105784,35.92935412291263,2.0,,right,silver,0.0,217.0,2.0,right,2023_Aug_10_1151,habits_v_MRI,5.0,40.0,1.0,5.0,30.0,15.0,5.0,15.0,30.0,30.0,60.0,RR,60.04523500282045,
25.0,0.0,resp1,stim/right_resp_img.png,"[-0.5, 0]",right,stim/silver_coin.png,silver,,,,,training,,,silver,deval,,,,,0.0,0.0,0.0,0.0,1.0,0.0,2.0,0.0,,,,,,,,,0.0,training_resp,,160.25795055698836,36.51260502969672,2.0,,right,silver,0.0,217.0,2.0,right,2023_Aug_10_1151,habits_v_MRI,5.0,40.0,1.0,5.0,30.0,15.0,5.0,15.0,30.0,30.0,60.0,RR,60.04523500282045,
25.0,0.0,resp1,stim/right_resp_img.png,"[-0.5, 0]",right,stim/silver_coin.png,silver,,,,,training,,,silver,deval,,,,,0.0,0.0,0.0,0.0,1.0,0.0,2.0,0.0,,,,,,,,,0.0,training_resp,,160.9579640756274,37.212559312654776,2.0,,right,silver,0.0,217.0,2.0,right,2023_Aug_10_1151,habits_v_MRI,5.0,40.0,1.0,5.0,30.0,15.0,5.0,15.0,30.0,30.0,60.0,RR,60.04523500282045,
25.0,0.0,resp1,stim/right_resp_img.png,"[-0.5, 0]",right,stim/silver_coin.png,silver,,,,,training,,,silver,deval,,,,,0.0,0.0,0.0,0.0,1.0,0.0,2.0,0.0,,,,,,,,,0.0,training_resp,,162.05788410746027,38.312510721807485,2.0,,right,silver,0.0,217.0,2.0,right,2023_Aug_10_1151,habits_v_MRI,5.0,40.0,1.0,5.0,30.0,15.0,5.0,15.0,30.0,30.0,60.0,RR,60.04523500282045,
25.0,0.0,resp1,stim/right_resp_img.png,"[-0.5, 0]",right,stim/silver_coin.png,silver,,,,,training,,,silver,deval,,,,,0.0,0.0,0.0,0.0,1.0,0.0,2.0,0.0,,,,,,,,,0.0,training_resp,,162.84104604342429,39.095762097786064,2.0,,right,silver,0.0,217.0,2.0,right,2023_Aug_10_1151,habits_v_MRI,5.0,40.0,1.0,5.0,30.0,15.0,5.0,15.0,30.0,30.0,60.0,RR,60.04523500282045,
25.0,0.0,resp1,stim/right_resp_img.png,"[-0.5, 0]",right,stim/silver_coin.png,silver,,,,,training,,,silver,deval,,,,,0.0,0.0,0.0,0.0,1.0,0.0,2.0,0.0,,,,,,,,,0.0,training_resp,,163.8910688139731,40.14570657166769,2.0,,right,silver,0.0,217.0,2.0,right,2023_Aug_10_1151,habits_v_MRI,5.0,40.0,1.0,5.0,30.0,15.0,5.0,15.0,30.0,30.0,60.0,RR,60.04523500282045,
25.0,0.0,resp1,stim/right_resp_img.png,"[-0.5, 0]",right,stim/silver_coin.png,silver,,,,,training,,,silver,deval,,,,,0.0,0.0,0.0,0.0,1.0,0.0,2.0,0.0,,,,,,,,,0.0,training_resp,,164.90767943645187,41.16231396845251,2.0,,right,silver,0.0,217.0,2.0,right,2023_Aug_10_1151,habits_v_MRI,5.0,40.0,1.0,5.0,30.0,15.0,5.0,15.0,30.0,30.0,60.0,RR,60.04523500282045,
25.0,0.0,resp1,stim/right_resp_img.png,"[-0.5, 0]",right,stim/silver_coin.png,silver,,,,,training,,,silver,deval,,,,,0.0,0.0,0.0,0.0,1.0,0.0,2.0,0.0,,,,,,,,,0.0,training_resp,,165.5910063819174,41.84563153004274,2.0,,right,silver,0.0,217.0,2.0,right,2023_Aug_10_1151,habits_v_MRI,5.0,40.0,1.0,5.0,30.0,15.0,5.0,15.0,30.0,30.0,60.0,RR,60.04523500282045,
25.0,0.0,resp1,stim/right_resp_img.png,"[-0.5, 0]",right,stim/silver_coin.png,silver,,,,,training,,,silver,deval,,,,,0.0,0.0,0.0,0.0,1.0,0.0,2.0,0.0,,,,,,,,,0.0,training_resp,,166.8409152557433,43.09553512543789,2.0,,right,silver,0.0,217.0,2.0,right,2023_Aug_10_1151,habits_v_MRI,5.0,40.0,1.0,5.0,30.0,15.0,5.0,15.0,30.0,30.0,60.0,RR,60.04523500282045,
25.0,0.0,resp1,stim/right_resp_img.png,"[-0.5, 0]",right,stim/silver_coin.png,silver,,,,,training,,,silver,deval,,,,,0.0,0.0,0.0,0.0,1.0,0.0,2.0,0.0,,,,,,,,,0.0,training_resp,,168.190819525611,44.44543265065295,2.0,,right,silver,0.0,217.0,2.0,right,2023_Aug_10_1151,habits_v_MRI,5.0,40.0,1.0,5.0,30.0,15.0,5.0,15.0,30.0,30.0,60.0,RR,60.04523500282045,
25.0,0.0,resp1,stim/right_resp_img.png,"[-0.5, 0]",right,stim/silver_coin.png,silver,,,,,training,,,silver,deval,,,,,0.0,0.0,0.0,0.0,1.0,0.0,2.0,0.0,,,,,,,,,0.0,training_resp,,168.82397825054068,45.07868492102716,2.0,,right,silver,0.0,217.0,2.0,right,2023_Aug_10_1151,habits_v_MRI,5.0,40.0,1.0,5.0,30.0,15.0,5.0,15.0,30.0,30.0,60.0,RR,60.04523500282045,
25.0,0.0,resp1,stim/right_resp_img.png,"[-0.5, 0]",right,stim/silver_coin.png,silver,,,,,training,,,silver,deval,,,,,0.0,0.0,0.0,0.0,1.0,0.0,2.0,0.0,,,,,,,,,0.0,training_resp,,169.55730450687406,45.81200531244394,2.0,,right,silver,0.0,217.0,2.0,right,2023_Aug_10_1151,habits_v_MRI,5.0,40.0,1.0,5.0,30.0,15.0,5.0,15.0,30.0,30.0,60.0,RR,60.04523500282045,
25.0,0.0,resp1,stim/right_resp_img.png,"[-0.5, 0]",right,stim/silver_coin.png,silver,,,,,training,,,silver,deval,,,,,0.0,0.0,0.0,0.0,1.0,0.0,2.0,0.0,,,,,,,,,0.0,training_resp,,170.80726792445057,47.06193148778402,2.0,,right,silver,0.0,217.0,2.0,right,2023_Aug_10_1151,habits_v_MRI,5.0,40.0,1.0,5.0,30.0,15.0,5.0,15.0,30.0,30.0,60.0,RR,60.04523500282045,
25.0,0.0,resp1,stim/right_resp_img.png,"[-0.5, 0]",right,stim/silver_coin.png,silver,,,,,training,,,silver,deval,,,,,0.0,0.0,0.0,0.0,1.0,0.0,2.0,0.0,,,,,,,,,0.0,training_resp,,172.02389162569307,48.27852029276255,2.0,,right,silver,0.0,217.0,2.0,right,2023_Aug_10_1151,habits_v_MRI,5.0,40.0,1.0,5.0,30.0,15.0,5.0,15.0,30.0,30.0,60.0,RR,60.04523500282045,
25.0,0.0,resp1,stim/right_resp_img.png,"[-0.5, 0]",right,stim/silver_coin.png,silver,,,,,training,,,silver,deval,,,,,0.0,0.0,0.0,0.0,1.0,0.0,2.0,0.0,,,,,,,,,0.0,training_resp,,173.17391712342214,49.42856837043655,2.0,12.0,right,silver,1.0,217.0,2.0,right,2023_Aug_10_1151,habits_v_MRI,5.0,40.0,1.0,5.0,30.0,15.0,5.0,15.0,30.0,30.0,60.0,RR,60.04523500282045,
25.0,0.0,resp1,stim/right_resp_img.png,"[-0.5, 0]",right,stim/silver_coin.png,silver,,,,,training,,,silver,deval,,,,,0.0,0.0,0.0,0.0,1.0,0.0,2.0,0.0,,,,,,,,,0.0,training_resp,,174.1905462204013,50.44511330583191,2.0,,right,silver,0.0,217.0,2.0,right,2023_Aug_10_1151,habits_v_MRI,5.0,40.0,1.0,5.0,30.0,15.0,5.0,15.0,30.0,30.0,60.0,RR,60.04523500282045,
25.0,0.0,resp1,stim/right_resp_img.png,"[-0.5, 0]",right,stim/silver_coin.png,silver,,,,,training,,,silver,deval,,,,,0.0,0.0,0.0,0.0,1.0,0.0,2.0,0.0,,,,,,,,,0.0,ITI_start,16.666666666666668,175.9245413706958,52.17832402326167,,,,,,217.0,2.0,right,2023_Aug_10_1151,habits_v_MRI,5.0,40.0,1.0,5.0,30.0,15.0,5.0,15.0,30.0,30.0,60.0,RR,60.04523500282045,
25.0,1.0,resp2,stim/left_resp_img.png,"[0.5, 0]",left,stim/gold_coin.png,silver,,,,,training,,,gold,val,,,,,0.0,0.0,0.0,0.0,1.0,1.0,3.0,1.0,,,,,,,,,0.0,training_period_start,60.0,192.62649647064973,0.0,3.0,16.0,,,,217.0,2.0,right,2023_Aug_10_1151,habits_v_MRI,5.0,40.0,1.0,5.0,30.0,15.0,5.0,15.0,30.0,30.0,60.0,RR,60.04523500282045,
25.0,1.0,resp2,stim/left_resp_img.png,"[0.5, 0]",left,stim/gold_coin.png,silver,,,,,training,,,gold,val,,,,,0.0,0.0,0.0,0.0,1.0,1.0,3.0,1.0,,,,,,,,,0.0,training_resp,,193.97249851691595,1.3648439770331606,3.0,,left,gold,0.0,217.0,2.0,right,2023_Aug_10_1151,habits_v_MRI,5.0,40.0,1.0,5.0,30.0,15.0,5.0,15.0,30.0,30.0,60.0,RR,60.04523500282045,
25.0,1.0,resp2,stim/left_resp_img.png,"[0.5, 0]",left,stim/gold_coin.png,silver,,,,,training,,,gold,val,,,,,0.0,0.0,0.0,0.0,1.0,1.0,3.0,1.0,,,,,,,,,0.0,training_resp,,194.7390858996514,2.131456578936195,3.0,,left,gold,0.0,217.0,2.0,right,2023_Aug_10_1151,habits_v_MRI,5.0,40.0,1.0,5.0,30.0,15.0,5.0,15.0,30.0,30.0,60.0,RR,60.04523500282045,
25.0,1.0,resp2,stim/left_resp_img.png,"[0.5, 0]",left,stim/gold_coin.png,silver,,,,,training,,,gold,val,,,,,0.0,0.0,0.0,0.0,1.0,1.0,3.0,1.0,,,,,,,,,0.0,training_resp,,195.2724459965684,2.6648113974224543,3.0,,left,gold,0.0,217.0,2.0,right,2023_Aug_10_1151,habits_v_MRI,5.0,40.0,1.0,5.0,30.0,15.0,5.0,15.0,30.0,30.0,60.0,RR,60.04523500282045,
25.0,1.0,resp2,stim/left_resp_img.png,"[0.5, 0]",left,stim/gold_coin.png,silver,,,,,training,,,gold,val,,,,,0.0,0.0,0.0,0.0,1.0,1.0,3.0,1.0,,,,,,,,,0.0,training_resp,,195.85572270900596,3.2480746205401374,3.0,,left,gold,0.0,217.0,2.0,right,2023_Aug_10_1151,habits_v_MRI,5.0,40.0,1.0,5.0,30.0,15.0,5.0,15.0,30.0,30.0,60.0,RR,60.04523500282045,
25.0,1.0,resp2,stim/left_resp_img.png,"[0.5, 0]",left,stim/gold_coin.png,silver,,,,,training,,,gold,val,,,,,0.0,0.0,0.0,0.0,1.0,1.0,3.0,1.0,,,,,,,,,0.0,training_resp,,196.38893706268573,3.7813429314701352,3.0,,left,gold,0.0,217.0,2.0,right,2023_Aug_10_1151,habits_v_MRI,5.0,40.0,1.0,5.0,30.0,15.0,5.0,15.0,30.0,30.0,60.0,RR,60.04523500282045,
25.0,1.0,resp2,stim/left_resp_img.png,"[0.5, 0]",left,stim/gold_coin.png,silver,,,,,training,,,gold,val,,,,,0.0,0.0,0.0,0.0,1.0,1.0,3.0,1.0,,,,,,,,,0.0,training_resp,,198.12238267011708,5.514546317761415,3.0,,left,gold,0.0,217.0,2.0,right,2023_Aug_10_1151,habits_v_MRI,5.0,40.0,1.0,5.0,30.0,15.0,5.0,15.0,30.0,30.0,60.0,RR,60.04523500282045,
25.0,1.0,resp2,stim/left_resp_img.png,"[0.5, 0]",left,stim/gold_coin.png,silver,,,,,training,,,gold,val,,,,,0.0,0.0,0.0,0.0,1.0,1.0,3.0,1.0,,,,,,,,,0.0,training_resp,,199.0722220739699,6.46448044005956,3.0,,left,gold,0.0,217.0,2.0,right,2023_Aug_10_1151,habits_v_MRI,5.0,40.0,1.0,5.0,30.0,15.0,5.0,15.0,30.0,30.0,60.0,RR,60.04523500282045,
25.0,1.0,resp2,stim/left_resp_img.png,"[0.5, 0]",left,stim/gold_coin.png,silver,,,,,training,,,gold,val,,,,,0.0,0.0,0.0,0.0,1.0,1.0,3.0,1.0,,,,,,,,,0.0,training_resp,,199.488748007032,6.881167951622047,3.0,,left,gold,0.0,217.0,2.0,right,2023_Aug_10_1151,habits_v_MRI,5.0,40.0,1.0,5.0,30.0,15.0,5.0,15.0,30.0,30.0,60.0,RR,60.04523500282045,
25.0,1.0,resp2,stim/left_resp_img.png,"[0.5, 0]",left,stim/gold_coin.png,silver,,,,,training,,,gold,val,,,,,0.0,0.0,0.0,0.0,1.0,1.0,3.0,1.0,,,,,,,,,0.0,training_resp,,200.73871904899715,8.131070374045521,3.0,,left,gold,0.0,217.0,2.0,right,2023_Aug_10_1151,habits_v_MRI,5.0,40.0,1.0,5.0,30.0,15.0,5.0,15.0,30.0,30.0,60.0,RR,60.04523500282045,
25.0,1.0,resp2,stim/left_resp_img.png,"[0.5, 0]",left,stim/gold_coin.png,silver,,,,,training,,,gold,val,,,,,0.0,0.0,0.0,0.0,1.0,1.0,3.0,1.0,,,,,,,,,0.0,training_resp,,202.1386979939416,9.53103436344827,3.0,,left,gold,0.0,217.0,2.0,right,2023_Aug_10_1151,habits_v_MRI,5.0,40.0,1.0,5.0,30.0,15.0,5.0,15.0,30.0,30.0,60.0,RR,60.04523500282045,
25.0,1.0,resp2,stim/left_resp_img.png,"[0.5, 0]",left,stim/gold_coin.png,silver,,,,,training,,,gold,val,,,,,0.0,0.0,0.0,0.0,1.0,1.0,3.0,1.0,,,,,,,,,0.0,training_resp,,203.68878044003213,11.080902153509667,3.0,,left,gold,0.0,217.0,2.0,right,2023_Aug_10_1151,habits_v_MRI,5.0,40.0,1.0,5.0,30.0,15.0,5.0,15.0,30.0,30.0,60.0,RR,60.04523500282045,
25.0,1.0,resp2,stim/left_resp_img.png,"[0.5, 0]",left,stim/gold_coin.png,silver,,,,,training,,,gold,val,,,,,0.0,0.0,0.0,0.0,1.0,1.0,3.0,1.0,,,,,,,,,0.0,training_resp,,205.0217265909887,12.414076156564988,3.0,,left,gold,0.0,217.0,2.0,right,2023_Aug_10_1151,habits_v_MRI,5.0,40.0,1.0,5.0,30.0,15.0,5.0,15.0,30.0,30.0,60.0,RR,60.04523500282045,
25.0,1.0,resp2,stim/left_resp_img.png,"[0.5, 0]",left,stim/gold_coin.png,silver,,,,,training,,,gold,val,,,,,0.0,0.0,0.0,0.0,1.0,1.0,3.0,1.0,,,,,,,,,0.0,training_resp,,205.85523973294767,13.24750836264866,3.0,,left,gold,0.0,217.0,2.0,right,2023_Aug_10_1151,habits_v_MRI,5.0,40.0,1.0,5.0,30.0,15.0,5.0,15.0,30.0,30.0,60.0,RR,60.04523500282045,
25.0,1.0,resp2,stim/left_resp_img.png,"[0.5, 0]",left,stim/gold_coin.png,silver,,,,,training,,,gold,val,,,,,0.0,0.0,0.0,0.0,1.0,1.0,3.0,1.0,,,,,,,,,0.0,training_resp,,206.53835114264805,13.930754372224328,3.0,,left,gold,0.0,217.0,2.0,right,2023_Aug_10_1151,habits_v_MRI,5.0,40.0,1.0,5.0,30.0,15.0,5.0,15.0,30.0,30.0,60.0,RR,60.04523500282045,
25.0,1.0,resp2,stim/left_resp_img.png,"[0.5, 0]",left,stim/gold_coin.png,silver,,,,,training,,,gold,val,,,,,0.0,0.0,0.0,0.0,1.0,1.0,3.0,1.0,,,,,,,,,0.0,training_resp,,207.1883577260305,14.580723126869998,3.0,,left,gold,0.0,217.0,2.0,right,2023_Aug_10_1151,habits_v_MRI,5.0,40.0,1.0,5.0,30.0,15.0,5.0,15.0,30.0,30.0,60.0,RR,60.04523500282045,
25.0,1.0,resp2,stim/left_resp_img.png,"[0.5, 0]",left,stim/gold_coin.png,silver,,,,,training,,,gold,val,,,,,0.0,0.0,0.0,0.0,1.0,1.0,3.0,1.0,,,,,,,,,0.0,training_resp,,207.8050454135373,15.197290876792977,3.0,21.0,left,gold,1.0,217.0,2.0,right,2023_Aug_10_1151,habits_v_MRI,5.0,40.0,1.0,5.0,30.0,15.0,5.0,15.0,30.0,30.0,60.0,RR,60.04523500282045,
25.0,1.0,resp2,stim/left_resp_img.png,"[0.5, 0]",left,stim/gold_coin.png,silver,,,,,training,,,gold,val,,,,,0.0,0.0,0.0,0.0,1.0,1.0,3.0,1.0,,,,,,,,,0.0,training_resp,,208.9215540744044,16.31389630882768,3.0,,left,gold,0.0,217.0,2.0,right,2023_Aug_10_1151,habits_v_MRI,5.0,40.0,1.0,5.0,30.0,15.0,5.0,15.0,30.0,30.0,60.0,RR,60.04523500282045,
25.0,1.0,resp2,stim/left_resp_img.png,"[0.5, 0]",left,stim/gold_coin.png,silver,,,,,training,,,gold,val,,,,,0.0,0.0,0.0,0.0,1.0,1.0,3.0,1.0,,,,,,,,,0.0,training_resp,,209.53820422643912,16.930601297848625,3.0,,left,gold,0.0,217.0,2.0,right,2023_Aug_10_1151,habits_v_MRI,5.0,40.0,1.0,5.0,30.0,15.0,5.0,15.0,30.0,30.0,60.0,RR,60.04523500282045,
25.0,1.0,resp2,stim/left_resp_img.png,"[0.5, 0]",left,stim/gold_coin.png,silver,,,,,training,,,gold,val,,,,,0.0,0.0,0.0,0.0,1.0,1.0,3.0,1.0,,,,,,,,,0.0,training_resp,,210.05474285704256,17.447171305771917,3.0,,left,gold,0.0,217.0,2.0,right,2023_Aug_10_1151,habits_v_MRI,5.0,40.0,1.0,5.0,30.0,15.0,5.0,15.0,30.0,30.0,60.0,RR,60.04523500282045,
25.0,1.0,resp2,stim/left_resp_img.png,"[0.5, 0]",left,stim/gold_coin.png,silver,,,,,training,,,gold,val,,,,,0.0,0.0,0.0,0.0,1.0,1.0,3.0,1.0,,,,,,,,,0.0,training_resp,,210.5714433594112,17.963811106223147,3.0,,left,gold,0.0,217.0,2.0,right,2023_Aug_10_1151,habits_v_MRI,5.0,40.0,1.0,5.0,30.0,15.0,5.0,15.0,30.0,30.0,60.0,RR,60.04523500282045,
25.0,1.0,resp2,stim/left_resp_img.png,"[0.5, 0]",left,stim/gold_coin.png,silver,,,,,training,,,gold,val,,,,,0.0,0.0,0.0,0.0,1.0,1.0,3.0,1.0,,,,,,,,,0.0,training_resp,,211.1546315115702,18.547008055757036,3.0,,left,gold,0.0,217.0,2.0,right,2023_Aug_10_1151,habits_v_MRI,5.0,40.0,1.0,5.0,30.0,15.0,5.0,15.0,30.0,30.0,60.0,RR,60.04523500282045,
25.0,1.0,resp2,stim/left_resp_img.png,"[0.5, 0]",left,stim/gold_coin.png,silver,,,,,training,,,gold,val,,,,,0.0,0.0,0.0,0.0,1.0,1.0,3.0,1.0,,,,,,,,,0.0,training_resp,,212.0546270249033,19.447007381299045,3.0,,left,gold,0.0,217.0,2.0,right,2023_Aug_10_1151,habits_v_MRI,5.0,40.0,1.0,5.0,30.0,15.0,5.0,15.0,30.0,30.0,60.0,RR,60.04523500282045,
25.0,1.0,resp2,stim/left_resp_img.png,"[0.5, 0]",left,stim/gold_coin.png,silver,,,,,training,,,gold,val,,,,,0.0,0.0,0.0,0.0,1.0,1.0,3.0,1.0,,,,,,,,,0.0,training_resp,,213.0545909556531,20.446971312048845,3.0,,left,gold,0.0,217.0,2.0,right,2023_Aug_10_1151,habits_v_MRI,5.0,40.0,1.0,5.0,30.0,15.0,5.0,15.0,30.0,30.0,60.0,RR,60.04523500282045,
25.0,1.0,resp2,stim/left_resp_img.png,"[0.5, 0]",left,stim/gold_coin.png,silver,,,,,training,,,gold,val,,,,,0.0,0.0,0.0,0.0,1.0,1.0,3.0,1.0,,,,,,,,,0.0,training_resp,,214.304611849424,21.69696317447233,3.0,,left,gold,0.0,217.0,2.0,right,2023_Aug_10_1151,habits_v_MRI,5.0,40.0,1.0,5.0,30.0,15.0,5.0,15.0,30.0,30.0,60.0,RR,60.04523500282045,
25.0,1.0,resp2,stim/left_resp_img.png,"[0.5, 0]",left,stim/gold_coin.png,silver,,,,,training,,,gold,val,,,,,0.0,0.0,0.0,0.0,1.0,1.0,3.0,1.0,,,,,,,,,0.0,training_resp,,214.78776912279136,22.18015886304784,3.0,,left,gold,0.0,217.0,2.0,right,2023_Aug_10_1151,habits_v_MRI,5.0,40.0,1.0,5.0,30.0,15.0,5.0,15.0,30.0,30.0,60.0,RR,60.04523500282045,
25.0,1.0,resp2,stim/left_resp_img.png,"[0.5, 0]",left,stim/gold_coin.png,silver,,,,,training,,,gold,val,,,,,0.0,0.0,0.0,0.0,1.0,1.0,3.0,1.0,,,,,,,,,0.0,training_resp,,215.32125150326465,22.71350400442316,3.0,,left,gold,0.0,217.0,2.0,right,2023_Aug_10_1151,habits_v_MRI,5.0,40.0,1.0,5.0,30.0,15.0,5.0,15.0,30.0,30.0,60.0,RR,60.04523500282045,
25.0,1.0,resp2,stim/left_resp_img.png,"[0.5, 0]",left,stim/gold_coin.png,silver,,,,,training,,,gold,val,,,,,0.0,0.0,0.0,0.0,1.0,1.0,3.0,1.0,,,,,,,,,0.0,training_resp,,215.82127041762575,23.213503564547864,3.0,,left,gold,0.0,217.0,2.0,right,2023_Aug_10_1151,habits_v_MRI,5.0,40.0,1.0,5.0,30.0,15.0,5.0,15.0,30.0,30.0,60.0,RR,60.04523500282045,
25.0,1.0,resp2,stim/left_resp_img.png,"[0.5, 0]",left,stim/gold_coin.png,silver,,,,,training,,,gold,val,,,,,0.0,0.0,0.0,0.0,1.0,1.0,3.0,1.0,,,,,,,,,0.0,training_resp,,216.37111181556247,23.76345522295742,3.0,,left,gold,0.0,217.0,2.0,right,2023_Aug_10_1151,habits_v_MRI,5.0,40.0,1.0,5.0,30.0,15.0,5.0,15.0,30.0,30.0,60.0,RR,60.04523500282045,
25.0,1.0,resp2,stim/left_resp_img.png,"[0.5, 0]",left,stim/gold_coin.png,silver,,,,,training,,,gold,val,,,,,0.0,0.0,0.0,0.0,1.0,1.0,3.0,1.0,,,,,,,,,0.0,training_resp,,217.08759461213776,24.480025700075203,3.0,,left,gold,0.0,217.0,2.0,right,2023_Aug_10_1151,habits_v_MRI,5.0,40.0,1.0,5.0,30.0,15.0,5.0,15.0,30.0,30.0,60.0,RR,60.04523500282045,
25.0,1.0,resp2,stim/left_resp_img.png,"[0.5, 0]",left,stim/gold_coin.png,silver,,,,,training,,,gold,val,,,,,0.0,0.0,0.0,0.0,1.0,1.0,3.0,1.0,,,,,,,,,0.0,training_resp,,217.60440420199305,24.99671388611023,3.0,,left,gold,0.0,217.0,2.0,right,2023_Aug_10_1151,habits_v_MRI,5.0,40.0,1.0,5.0,30.0,15.0,5.0,15.0,30.0,30.0,60.0,RR,60.04523500282045,
25.0,1.0,resp2,stim/left_resp_img.png,"[0.5, 0]",left,stim/gold_coin.png,silver,,,,,training,,,gold,val,,,,,0.0,0.0,0.0,0.0,1.0,1.0,3.0,1.0,,,,,,,,,0.0,training_resp,,220.28761062337435,27.67990799115796,3.0,,left,gold,0.0,217.0,2.0,right,2023_Aug_10_1151,habits_v_MRI,5.0,40.0,1.0,5.0,30.0,15.0,5.0,15.0,30.0,30.0,60.0,RR,60.04523500282045,
25.0,1.0,resp2,stim/left_resp_img.png,"[0.5, 0]",left,stim/gold_coin.png,silver,,,,,training,,,gold,val,,,,,0.0,0.0,0.0,0.0,1.0,1.0,3.0,1.0,,,,,,,,,0.0,training_resp,,222.73738419351864,30.12969622360833,3.0,,left,gold,0.0,217.0,2.0,right,2023_Aug_10_1151,habits_v_MRI,5.0,40.0,1.0,5.0,30.0,15.0,5.0,15.0,30.0,30.0,60.0,RR,60.04523500282045,
25.0,1.0,resp2,stim/left_resp_img.png,"[0.5, 0]",left,stim/gold_coin.png,silver,,,,,training,,,gold,val,,,,,0.0,0.0,0.0,0.0,1.0,1.0,3.0,1.0,,,,,,,,,0.0,training_resp,,223.5373045479355,30.929624788899677,3.0,,left,gold,0.0,217.0,2.0,right,2023_Aug_10_1151,habits_v_MRI,5.0,40.0,1.0,5.0,30.0,15.0,5.0,15.0,30.0,30.0,60.0,RR,60.04523500282045,
25.0,1.0,resp2,stim/left_resp_img.png,"[0.5, 0]",left,stim/gold_coin.png,silver,,,,,training,,,gold,val,,,,,0.0,0.0,0.0,0.0,1.0,1.0,3.0,1.0,,,,,,,,,0.0,training_resp,,224.95401874487288,32.34626860682329,3.0,,left,gold,0.0,217.0,2.0,right,2023_Aug_10_1151,habits_v_MRI,5.0,40.0,1.0,5.0,30.0,15.0,5.0,15.0,30.0,30.0,60.0,RR,60.04523500282045,
25.0,1.0,resp2,stim/left_resp_img.png,"[0.5, 0]",left,stim/gold_coin.png,silver,,,,,training,,,gold,val,,,,,0.0,0.0,0.0,0.0,1.0,1.0,3.0,1.0,,,,,,,,,0.0,training_resp,,225.737167778032,33.129537577566225,3.0,,left,gold,0.0,217.0,2.0,right,2023_Aug_10_1151,habits_v_MRI,5.0,40.0,1.0,5.0,30.0,15.0,5.0,15.0,30.0,30.0,60.0,RR,60.04523500282045,
25.0,1.0,resp2,stim/left_resp_img.png,"[0.5, 0]",left,stim/gold_coin.png,silver,,,,,training,,,gold,val,,,,,0.0,0.0,0.0,0.0,1.0,1.0,3.0,1.0,,,,,,,,,0.0,training_resp,,226.18714339462167,33.57953166865627,3.0,,left,gold,0.0,217.0,2.0,right,2023_Aug_10_1151,habits_v_MRI,5.0,40.0,1.0,5.0,30.0,15.0,5.0,15.0,30.0,30.0,60.0,RR,60.04523500282045,
25.0,1.0,resp2,stim/left_resp_img.png,"[0.5, 0]",left,stim/gold_coin.png,silver,,,,,training,,,gold,val,,,,,0.0,0.0,0.0,0.0,1.0,1.0,3.0,1.0,,,,,,,,,0.0,training_resp,,226.7037811423652,34.096111940190895,3.0,14.0,left,gold,1.0,217.0,2.0,right,2023_Aug_10_1151,habits_v_MRI,5.0,40.0,1.0,5.0,30.0,15.0,5.0,15.0,30.0,30.0,60.0,RR,60.04523500282045,
25.0,1.0,resp2,stim/left_resp_img.png,"[0.5, 0]",left,stim/gold_coin.png,silver,,,,,training,,,gold,val,,,,,0.0,0.0,0.0,0.0,1.0,1.0,3.0,1.0,,,,,,,,,0.0,training_resp,,227.40371577783665,34.796078246232355,3.0,,left,gold,0.0,217.0,2.0,right,2023_Aug_10_1151,habits_v_MRI,5.0,40.0,1.0,5.0,30.0,15.0,5.0,15.0,30.0,30.0,60.0,RR,60.04523500282045,
25.0,1.0,resp2,stim/left_resp_img.png,"[0.5, 0]",left,stim/gold_coin.png,silver,,,,,training,,,gold,val,,,,,0.0,0.0,0.0,0.0,1.0,1.0,3.0,1.0,,,,,,,,,0.0,training_resp,,228.02040786403813,35.41276622698933,3.0,,left,gold,0.0,217.0,2.0,right,2023_Aug_10_1151,habits_v_MRI,5.0,40.0,1.0,5.0,30.0,15.0,5.0,15.0,30.0,30.0,60.0,RR,60.04523500282045,
25.0,1.0,resp2,stim/left_resp_img.png,"[0.5, 0]",left,stim/gold_coin.png,silver,,,,,training,,,gold,val,,,,,0.0,0.0,0.0,0.0,1.0,1.0,3.0,1.0,,,,,,,,,0.0,training_resp,,228.67033908321173,36.0627050705516,3.0,,left,gold,0.0,217.0,2.0,right,2023_Aug_10_1151,habits_v_MRI,5.0,40.0,1.0,5.0,30.0,15.0,5.0,15.0,30.0,30.0,60.0,RR,60.04523500282045,
25.0,1.0,resp2,stim/left_resp_img.png,"[0.5, 0]",left,stim/gold_coin.png,silver,,,,,training,,,gold,val,,,,,0.0,0.0,0.0,0.0,1.0,1.0,3.0,1.0,,,,,,,,,0.0,training_resp,,229.73711558025389,37.12932380127313,3.0,,left,gold,0.0,217.0,2.0,right,2023_Aug_10_1151,habits_v_MRI,5.0,40.0,1.0,5.0,30.0,15.0,5.0,15.0,30.0,30.0,60.0,RR,60.04523500282045,
25.0,1.0,resp2,stim/left_resp_img.png,"[0.5, 0]",left,stim/gold_coin.png,silver,,,,,training,,,gold,val,,,,,0.0,0.0,0.0,0.0,1.0,1.0,3.0,1.0,,,,,,,,,0.0,training_resp,,230.4035110921832,37.79590171217569,3.0,,left,gold,0.0,217.0,2.0,right,2023_Aug_10_1151,habits_v_MRI,5.0,40.0,1.0,5.0,30.0,15.0,5.0,15.0,30.0,30.0,60.0,RR,60.04523500282045,
25.0,1.0,resp2,stim/left_resp_img.png,"[0.5, 0]",left,stim/gold_coin.png,silver,,,,,training,,,gold,val,,,,,0.0,0.0,0.0,0.0,1.0,1.0,3.0,1.0,,,,,,,,,0.0,training_resp,,231.10349616596068,38.49585482214752,3.0,,left,gold,0.0,217.0,2.0,right,2023_Aug_10_1151,habits_v_MRI,5.0,40.0,1.0,5.0,30.0,15.0,5.0,15.0,30.0,30.0,60.0,RR,60.04523500282045,
25.0,1.0,resp2,stim/left_resp_img.png,"[0.5, 0]",left,stim/gold_coin.png,silver,,,,,training,,,gold,val,,,,,0.0,0.0,0.0,0.0,1.0,1.0,3.0,1.0,,,,,,,,,0.0,training_resp,,231.88679504778705,39.27912349964026,3.0,,left,gold,0.0,217.0,2.0,right,2023_Aug_10_1151,habits_v_MRI,5.0,40.0,1.0,5.0,30.0,15.0,5.0,15.0,30.0,30.0,60.0,RR,60.04523500282045,
25.0,1.0,resp2,stim/left_resp_img.png,"[0.5, 0]",left,stim/gold_coin.png,silver,,,,,training,,,gold,val,,,,,0.0,0.0,0.0,0.0,1.0,1.0,3.0,1.0,,,,,,,,,0.0,training_resp,,232.47044799475407,39.86285679599678,3.0,,left,gold,0.0,217.0,2.0,right,2023_Aug_10_1151,habits_v_MRI,5.0,40.0,1.0,5.0,30.0,15.0,5.0,15.0,30.0,30.0,60.0,RR,60.04523500282045,
25.0,1.0,resp2,stim/left_resp_img.png,"[0.5, 0]",left,stim/gold_coin.png,silver,,,,,training,,,gold,val,,,,,0.0,0.0,0.0,0.0,1.0,1.0,3.0,1.0,,,,,,,,,0.0,training_resp,,233.0366510493768,40.42906512905029,3.0,,left,gold,0.0,217.0,2.0,right,2023_Aug_10_1151,habits_v_MRI,5.0,40.0,1.0,5.0,30.0,15.0,5.0,15.0,30.0,30.0,60.0,RR,60.04523500282045,
25.0,1.0,resp2,stim/left_resp_img.png,"[0.5, 0]",left,stim/gold_coin.png,silver,,,,,training,,,gold,val,,,,,0.0,0.0,0.0,0.0,1.0,1.0,3.0,1.0,,,,,,,,,0.0,training_resp,,233.5033589855157,40.895720574160805,3.0,,left,gold,0.0,217.0,2.0,right,2023_Aug_10_1151,habits_v_MRI,5.0,40.0,1.0,5.0,30.0,15.0,5.0,15.0,30.0,30.0,60.0,RR,60.04523500282045,
25.0,1.0,resp2,stim/left_resp_img.png,"[0.5, 0]",left,stim/gold_coin.png,silver,,,,,training,,,gold,val,,,,,0.0,0.0,0.0,0.0,1.0,1.0,3.0,1.0,,,,,,,,,0.0,training_resp,,234.5200259112171,41.91233412911242,3.0,,left,gold,0.0,217.0,2.0,right,2023_Aug_10_1151,habits_v_MRI,5.0,40.0,1.0,5.0,30.0,15.0,5.0,15.0,30.0,30.0,60.0,RR,60.04523500282045,
25.0,1.0,resp2,stim/left_resp_img.png,"[0.5, 0]",left,stim/gold_coin.png,silver,,,,,training,,,gold,val,,,,,0.0,0.0,0.0,0.0,1.0,1.0,3.0,1.0,,,,,,,,,0.0,training_resp,,235.47004478159943,42.86223452813283,3.0,,left,gold,0.0,217.0,2.0,right,2023_Aug_10_1151,habits_v_MRI,5.0,40.0,1.0,5.0,30.0,15.0,5.0,15.0,30.0,30.0,60.0,RR,60.04523500282045,
25.0,1.0,resp2,stim/left_resp_img.png,"[0.5, 0]",left,stim/gold_coin.png,silver,,,,,training,,,gold,val,,,,,0.0,0.0,0.0,0.0,1.0,1.0,3.0,1.0,,,,,,,,,0.0,training_resp,,236.68645646603545,44.078804272125126,3.0,,left,gold,0.0,217.0,2.0,right,2023_Aug_10_1151,habits_v_MRI,5.0,40.0,1.0,5.0,30.0,15.0,5.0,15.0,30.0,30.0,60.0,RR,60.04523500282045,
25.0,1.0,resp2,stim/left_resp_img.png,"[0.5, 0]",left,stim/gold_coin.png,silver,,,,,training,,,gold,val,,,,,0.0,0.0,0.0,0.0,1.0,1.0,3.0,1.0,,,,,,,,,0.0,training_resp,,237.2864300152578,44.678786911972566,3.0,8.0,left,gold,1.0,217.0,2.0,right,2023_Aug_10_1151,habits_v_MRI,5.0,40.0,1.0,5.0,30.0,15.0,5.0,15.0,30.0,30.0,60.0,RR,60.04523500282045,
25.0,1.0,resp2,stim/left_resp_img.png,"[0.5, 0]",left,stim/gold_coin.png,silver,,,,,training,,,gold,val,,,,,0.0,0.0,0.0,0.0,1.0,1.0,3.0,1.0,,,,,,,,,0.0,training_resp,,238.25313780477157,45.64545452679158,3.0,,left,gold,0.0,217.0,2.0,right,2023_Aug_10_1151,habits_v_MRI,5.0,40.0,1.0,5.0,30.0,15.0,5.0,15.0,30.0,30.0,60.0,RR,60.04523500282045,
25.0,1.0,resp2,stim/left_resp_img.png,"[0.5, 0]",left,stim/gold_coin.png,silver,,,,,training,,,gold,val,,,,,0.0,0.0,0.0,0.0,1.0,1.0,3.0,1.0,,,,,,,,,0.0,training_resp,,238.90306051980588,46.29538897167368,3.0,,left,gold,0.0,217.0,2.0,right,2023_Aug_10_1151,habits_v_MRI,5.0,40.0,1.0,5.0,30.0,15.0,5.0,15.0,30.0,30.0,60.0,RR,60.04523500282045,
25.0,1.0,resp2,stim/left_resp_img.png,"[0.5, 0]",left,stim/gold_coin.png,silver,,,,,training,,,gold,val,,,,,0.0,0.0,0.0,0.0,1.0,1.0,3.0,1.0,,,,,,,,,0.0,training_resp,,239.66959893048625,47.06197606115893,3.0,,left,gold,0.0,217.0,2.0,right,2023_Aug_10_1151,habits_v_MRI,5.0,40.0,1.0,5.0,30.0,15.0,5.0,15.0,30.0,30.0,60.0,RR,60.04523500282045,
25.0,1.0,resp2,stim/left_resp_img.png,"[0.5, 0]",left,stim/gold_coin.png,silver,,,,,training,,,gold,val,,,,,0.0,0.0,0.0,0.0,1.0,1.0,3.0,1.0,,,,,,,,,0.0,training_resp,,240.7361810054717,48.12854347385292,3.0,,left,gold,0.0,217.0,2.0,right,2023_Aug_10_1151,habits_v_MRI,5.0,40.0,1.0,5.0,30.0,15.0,5.0,15.0,30.0,30.0,60.0,RR,60.04523500282045,
25.0,1.0,resp2,stim/left_resp_img.png,"[0.5, 0]",left,stim/gold_coin.png,silver,,,,,training,,,gold,val,,,,,0.0,0.0,0.0,0.0,1.0,1.0,3.0,1.0,,,,,,,,,0.0,training_resp,,242.06969546704204,49.46186175389448,3.0,,left,gold,0.0,217.0,2.0,right,2023_Aug_10_1151,habits_v_MRI,5.0,40.0,1.0,5.0,30.0,15.0,5.0,15.0,30.0,30.0,60.0,RR,60.04523500282045,
25.0,1.0,resp2,stim/left_resp_img.png,"[0.5, 0]",left,stim/gold_coin.png,silver,,,,,training,,,gold,val,,,,,0.0,0.0,0.0,0.0,1.0,1.0,3.0,1.0,,,,,,,,,0.0,training_resp,,242.6361988054996,50.02851875322813,3.0,,left,gold,0.0,217.0,2.0,right,2023_Aug_10_1151,habits_v_MRI,5.0,40.0,1.0,5.0,30.0,15.0,5.0,15.0,30.0,30.0,60.0,RR,60.04523500282045,
25.0,1.0,resp2,stim/left_resp_img.png,"[0.5, 0]",left,stim/gold_coin.png,silver,,,,,training,,,gold,val,,,,,0.0,0.0,0.0,0.0,1.0,1.0,3.0,1.0,,,,,,,,,0.0,training_resp,,243.46938644448528,50.86173571679683,3.0,,left,gold,0.0,217.0,2.0,right,2023_Aug_10_1151,habits_v_MRI,5.0,40.0,1.0,5.0,30.0,15.0,5.0,15.0,30.0,30.0,60.0,RR,60.04523500282045,
25.0,1.0,resp2,stim/left_resp_img.png,"[0.5, 0]",left,stim/gold_coin.png,silver,,,,,training,,,gold,val,,,,,0.0,0.0,0.0,0.0,1.0,1.0,3.0,1.0,,,,,,,,,0.0,training_resp,,244.0694239213044,51.461780524783535,3.0,21.0,left,gold,1.0,217.0,2.0,right,2023_Aug_10_1151,habits_v_MRI,5.0,40.0,1.0,5.0,30.0,15.0,5.0,15.0,30.0,30.0,60.0,RR,60.04523500282045,
25.0,1.0,resp2,stim/left_resp_img.png,"[0.5, 0]",left,stim/gold_coin.png,silver,,,,,training,,,gold,val,,,,,0.0,0.0,0.0,0.0,1.0,1.0,3.0,1.0,,,,,,,,,0.0,training_resp,,245.26933846944303,52.661691553963465,3.0,,left,gold,0.0,217.0,2.0,right,2023_Aug_10_1151,habits_v_MRI,5.0,40.0,1.0,5.0,30.0,15.0,5.0,15.0,30.0,30.0,60.0,RR,60.04523500282045,
25.0,1.0,resp2,stim/left_resp_img.png,"[0.5, 0]",left,stim/gold_coin.png,silver,,,,,training,,,gold,val,,,,,0.0,0.0,0.0,0.0,1.0,1.0,3.0,1.0,,,,,,,,,0.0,training_resp,,245.8193147605052,53.211621218928485,3.0,,left,gold,0.0,217.0,2.0,right,2023_Aug_10_1151,habits_v_MRI,5.0,40.0,1.0,5.0,30.0,15.0,5.0,15.0,30.0,30.0,60.0,RR,60.04523500282045,
25.0,1.0,resp2,stim/left_resp_img.png,"[0.5, 0]",left,stim/gold_coin.png,silver,,,,,training,,,gold,val,,,,,0.0,0.0,0.0,0.0,1.0,1.0,3.0,1.0,,,,,,,,,0.0,training_resp,,246.63585893347044,54.02825659136579,3.0,,left,gold,0.0,217.0,2.0,right,2023_Aug_10_1151,habits_v_MRI,5.0,40.0,1.0,5.0,30.0,15.0,5.0,15.0,30.0,30.0,60.0,RR,60.04523500282045,
25.0,1.0,resp2,stim/left_resp_img.png,"[0.5, 0]",left,stim/gold_coin.png,silver,,,,,training,,,gold,val,,,,,0.0,0.0,0.0,0.0,1.0,1.0,3.0,1.0,,,,,,,,,0.0,training_resp,,247.1692155114288,54.56158795017109,3.0,,left,gold,0.0,217.0,2.0,right,2023_Aug_10_1151,habits_v_MRI,5.0,40.0,1.0,5.0,30.0,15.0,5.0,15.0,30.0,30.0,60.0,RR,60.04523500282045,
25.0,1.0,resp2,stim/left_resp_img.png,"[0.5, 0]",left,stim/gold_coin.png,silver,,,,,training,,,gold,val,,,,,0.0,0.0,0.0,0.0,1.0,1.0,3.0,1.0,,,,,,,,,0.0,training_resp,,248.719113799074,56.111419084511,3.0,,left,gold,0.0,217.0,2.0,right,2023_Aug_10_1151,habits_v_MRI,5.0,40.0,1.0,5.0,30.0,15.0,5.0,15.0,30.0,30.0,60.0,RR,60.04523500282045,
25.0,1.0,resp2,stim/left_resp_img.png,"[0.5, 0]",left,stim/gold_coin.png,silver,,,,,training,,,gold,val,,,,,0.0,0.0,0.0,0.0,1.0,1.0,3.0,1.0,,,,,,,,,0.0,training_resp,,249.41911412164336,56.8114097299549,3.0,,left,gold,0.0,217.0,2.0,right,2023_Aug_10_1151,habits_v_MRI,5.0,40.0,1.0,5.0,30.0,15.0,5.0,15.0,30.0,30.0,60.0,RR,60.04523500282045,
25.0,1.0,resp2,stim/left_resp_img.png,"[0.5, 0]",left,stim/gold_coin.png,silver,,,,,training,,,gold,val,,,,,0.0,0.0,0.0,0.0,1.0,1.0,3.0,1.0,,,,,,,,,0.0,training_resp,,250.46905009140028,57.86133484961465,3.0,,left,gold,0.0,217.0,2.0,right,2023_Aug_10_1151,habits_v_MRI,5.0,40.0,1.0,5.0,30.0,15.0,5.0,15.0,30.0,30.0,60.0,RR,60.04523500282045,
25.0,1.0,resp2,stim/left_resp_img.png,"[0.5, 0]",left,stim/gold_coin.png,silver,,,,,training,,,gold,val,,,,,0.0,0.0,0.0,0.0,1.0,1.0,3.0,1.0,,,,,,,,,0.0,training_resp,,251.8690099753585,59.261268341433606,3.0,,left,gold,0.0,217.0,2.0,right,2023_Aug_10_1151,habits_v_MRI,5.0,40.0,1.0,5.0,30.0,15.0,5.0,15.0,30.0,30.0,60.0,RR,60.04523500282045,
25.0,1.0,resp2,stim/left_resp_img.png,"[0.5, 0]",left,stim/gold_coin.png,silver,,,,,training,,,gold,val,,,,,0.0,0.0,0.0,0.0,1.0,1.0,3.0,1.0,,,,,,,,,0.0,ITI_start,26.666666666666668,252.2861828089372,59.67785087095399,,,,,,217.0,2.0,right,2023_Aug_10_1151,habits_v_MRI,5.0,40.0,1.0,5.0,30.0,15.0,5.0,15.0,30.0,30.0,60.0,RR,60.04523500282045,
25.0,0.0,resp1,stim/right_resp_img.png,"[-0.5, 0]",right,stim/silver_coin.png,silver,,,,,training,,,silver,deval,,,,,0.0,0.0,0.0,0.0,2.0,0.0,4.0,0.0,,,,,,,,,0.0,training_period_start,60.0,278.98778747998585,0.0,4.0,15.0,,,,217.0,2.0,right,2023_Aug_10_1151,habits_v_MRI,5.0,40.0,1.0,5.0,30.0,15.0,5.0,15.0,30.0,30.0,60.0,RR,60.04523500282045,
25.0,0.0,resp1,stim/right_resp_img.png,"[-0.5, 0]",right,stim/silver_coin.png,silver,,,,,training,,,silver,deval,,,,,0.0,0.0,0.0,0.0,2.0,0.0,4.0,0.0,,,,,,,,,0.0,training_resp,,280.18388660532946,1.2149017611518502,4.0,,right,silver,0.0,217.0,2.0,right,2023_Aug_10_1151,habits_v_MRI,5.0,40.0,1.0,5.0,30.0,15.0,5.0,15.0,30.0,30.0,60.0,RR,60.04523500282045,
25.0,0.0,resp1,stim/right_resp_img.png,"[-0.5, 0]",right,stim/silver_coin.png,silver,,,,,training,,,silver,deval,,,,,0.0,0.0,0.0,0.0,2.0,0.0,4.0,0.0,,,,,,,,,0.0,training_resp,,281.3506130452879,2.381501518873847,4.0,,right,silver,0.0,217.0,2.0,right,2023_Aug_10_1151,habits_v_MRI,5.0,40.0,1.0,5.0,30.0,15.0,5.0,15.0,30.0,30.0,60.0,RR,60.04523500282045,
25.0,0.0,resp1,stim/right_resp_img.png,"[-0.5, 0]",right,stim/silver_coin.png,silver,,,,,training,,,silver,deval,,,,,0.0,0.0,0.0,0.0,2.0,0.0,4.0,0.0,,,,,,,,,0.0,training_resp,,281.900430690308,2.931491592506063,4.0,,right,silver,0.0,217.0,2.0,right,2023_Aug_10_1151,habits_v_MRI,5.0,40.0,1.0,5.0,30.0,15.0,5.0,15.0,30.0,30.0,60.0,RR,60.04523500282045,
25.0,0.0,resp1,stim/right_resp_img.png,"[-0.5, 0]",right,stim/silver_coin.png,silver,,,,,training,,,silver,deval,,,,,0.0,0.0,0.0,0.0,2.0,0.0,4.0,0.0,,,,,,,,,0.0,training_resp,,282.4169144839252,3.4480167337897,4.0,,right,silver,0.0,217.0,2.0,right,2023_Aug_10_1151,habits_v_MRI,5.0,40.0,1.0,5.0,30.0,15.0,5.0,15.0,30.0,30.0,60.0,RR,60.04523500282045,
25.0,0.0,resp1,stim/right_resp_img.png,"[-0.5, 0]",right,stim/silver_coin.png,silver,,,,,training,,,silver,deval,,,,,0.0,0.0,0.0,0.0,2.0,0.0,4.0,0.0,,,,,,,,,0.0,training_resp,,282.9836799842451,4.014738833720912,4.0,,right,silver,0.0,217.0,2.0,right,2023_Aug_10_1151,habits_v_MRI,5.0,40.0,1.0,5.0,30.0,15.0,5.0,15.0,30.0,30.0,60.0,RR,60.04523500282045,
25.0,0.0,resp1,stim/right_resp_img.png,"[-0.5, 0]",right,stim/silver_coin.png,silver,,,,,training,,,silver,deval,,,,,0.0,0.0,0.0,0.0,2.0,0.0,4.0,0.0,,,,,,,,,0.0,training_resp,,284.35015587488306,5.381235251566977,4.0,,right,silver,0.0,217.0,2.0,right,2023_Aug_10_1151,habits_v_MRI,5.0,40.0,1.0,5.0,30.0,15.0,5.0,15.0,30.0,30.0,60.0,RR,60.04523500282045,
25.0,0.0,resp1,stim/right_resp_img.png,"[-0.5, 0]",right,stim/silver_coin.png,silver,,,,,training,,,silver,deval,,,,,0.0,0.0,0.0,0.0,2.0,0.0,4.0,0.0,,,,,,,,,0.0,training_resp,,285.4168235776888,6.447898262442322,4.0,,right,silver,0.0,217.0,2.0,right,2023_Aug_10_1151,habits_v_MRI,5.0,40.0,1.0,5.0,30.0,15.0,5.0,15.0,30.0,30.0,60.0,RR,60.04523500282045,
25.0,0.0,resp1,stim/right_resp_img.png,"[-0.5, 0]",right,stim/silver_coin.png,silver,,,,,training,,,silver,deval,,,,,0.0,0.0,0.0,0.0,2.0,0.0,4.0,0.0,,,,,,,,,0.0,training_resp,,286.76678678998724,7.797823939254158,4.0,,right,silver,0.0,217.0,2.0,right,2023_Aug_10_1151,habits_v_MRI,5.0,40.0,1.0,5.0,30.0,15.0,5.0,15.0,30.0,30.0,60.0,RR,60.04523500282045,
25.0,0.0,resp1,stim/right_resp_img.png,"[-0.5, 0]",right,stim/silver_coin.png,silver,,,,,training,,,silver,deval,,,,,0.0,0.0,0.0,0.0,2.0,0.0,4.0,0.0,,,,,,,,,0.0,training_resp,,287.28326002674294,8.314384270066512,4.0,,right,silver,0.0,217.0,2.0,right,2023_Aug_10_1151,habits_v_MRI,5.0,40.0,1.0,5.0,30.0,15.0,5.0,15.0,30.0,30.0,60.0,RR,60.04523500282045,
25.0,0.0,resp1,stim/right_resp_img.png,"[-0.5, 0]",right,stim/silver_coin.png,silver,,,,,training,,,silver,deval,,,,,0.0,0.0,0.0,0.0,2.0,0.0,4.0,0.0,,,,,,,,,0.0,training_resp,,287.76677418040344,8.797819833809626,4.0,,right,silver,0.0,217.0,2.0,right,2023_Aug_10_1151,habits_v_MRI,5.0,40.0,1.0,5.0,30.0,15.0,5.0,15.0,30.0,30.0,60.0,RR,60.04523500282045,
25.0,0.0,resp1,stim/right_resp_img.png,"[-0.5, 0]",right,stim/silver_coin.png,silver,,,,,training,,,silver,deval,,,,,0.0,0.0,0.0,0.0,2.0,0.0,4.0,0.0,,,,,,,,,0.0,training_resp,,288.29997211231967,9.331072309461888,4.0,,right,silver,0.0,217.0,2.0,right,2023_Aug_10_1151,habits_v_MRI,5.0,40.0,1.0,5.0,30.0,15.0,5.0,15.0,30.0,30.0,60.0,RR,60.04523500282045,
25.0,0.0,resp1,stim/right_resp_img.png,"[-0.5, 0]",right,stim/silver_coin.png,silver,,,,,training,,,silver,deval,,,,,0.0,0.0,0.0,0.0,2.0,0.0,4.0,0.0,,,,,,,,,0.0,training_resp,,288.8166866904794,9.847708590968978,4.0,,right,silver,0.0,217.0,2.0,right,2023_Aug_10_1151,habits_v_MRI,5.0,40.0,1.0,5.0,30.0,15.0,5.0,15.0,30.0,30.0,60.0,RR,60.04523500282045,
25.0,0.0,resp1,stim/right_resp_img.png,"[-0.5, 0]",right,stim/silver_coin.png,silver,,,,,training,,,silver,deval,,,,,0.0,0.0,0.0,0.0,2.0,0.0,4.0,0.0,,,,,,,,,0.0,training_resp,,289.816507223979,10.84761768473254,4.0,,right,silver,0.0,217.0,2.0,right,2023_Aug_10_1151,habits_v_MRI,5.0,40.0,1.0,5.0,30.0,15.0,5.0,15.0,30.0,30.0,60.0,RR,60.04523500282045,
25.0,0.0,resp1,stim/right_resp_img.png,"[-0.5, 0]",right,stim/silver_coin.png,silver,,,,,training,,,silver,deval,,,,,0.0,0.0,0.0,0.0,2.0,0.0,4.0,0.0,,,,,,,,,0.0,training_resp,,290.21642282779794,11.247595163440565,4.0,,right,silver,0.0,217.0,2.0,right,2023_Aug_10_1151,habits_v_MRI,5.0,40.0,1.0,5.0,30.0,15.0,5.0,15.0,30.0,30.0,60.0,RR,60.04523500282045,
25.0,0.0,resp1,stim/right_resp_img.png,"[-0.5, 0]",right,stim/silver_coin.png,silver,,,,,training,,,silver,deval,,,,,0.0,0.0,0.0,0.0,2.0,0.0,4.0,0.0,,,,,,,,,0.0,training_resp,,291.0498688164371,12.08092502670479,4.0,5.0,right,silver,1.0,217.0,2.0,right,2023_Aug_10_1151,habits_v_MRI,5.0,40.0,1.0,5.0,30.0,15.0,5.0,15.0,30.0,30.0,60.0,RR,60.04523500282045,
25.0,0.0,resp1,stim/right_resp_img.png,"[-0.5, 0]",right,stim/silver_coin.png,silver,,,,,training,,,silver,deval,,,,,0.0,0.0,0.0,0.0,2.0,0.0,4.0,0.0,,,,,,,,,0.0,training_resp,,291.58304710088123,12.614124424842885,4.0,,right,silver,0.0,217.0,2.0,right,2023_Aug_10_1151,habits_v_MRI,5.0,40.0,1.0,5.0,30.0,15.0,5.0,15.0,30.0,30.0,60.0,RR,60.04523500282045,
25.0,0.0,resp1,stim/right_resp_img.png,"[-0.5, 0]",right,stim/silver_coin.png,silver,,,,,training,,,silver,deval,,,,,0.0,0.0,0.0,0.0,2.0,0.0,4.0,0.0,,,,,,,,,0.0,training_resp,,292.0167173640075,13.047772401288968,4.0,,right,silver,0.0,217.0,2.0,right,2023_Aug_10_1151,habits_v_MRI,5.0,40.0,1.0,5.0,30.0,15.0,5.0,15.0,30.0,30.0,60.0,RR,60.04523500282045,
25.0,0.0,resp1,stim/right_resp_img.png,"[-0.5, 0]",right,stim/silver_coin.png,silver,,,,,training,,,silver,deval,,,,,0.0,0.0,0.0,0.0,2.0,0.0,4.0,0.0,,,,,,,,,0.0,training_resp,,292.48292590233905,13.514093252801104,4.0,,right,silver,0.0,217.0,2.0,right,2023_Aug_10_1151,habits_v_MRI,5.0,40.0,1.0,5.0,30.0,15.0,5.0,15.0,30.0,30.0,60.0,RR,60.04523500282045,
25.0,0.0,resp1,stim/right_resp_img.png,"[-0.5, 0]",right,stim/silver_coin.png,silver,,,,,training,,,silver,deval,,,,,0.0,0.0,0.0,0.0,2.0,0.0,4.0,0.0,,,,,,,,,0.0,training_resp,,292.94965084674186,13.980739607301077,4.0,,right,silver,0.0,217.0,2.0,right,2023_Aug_10_1151,habits_v_MRI,5.0,40.0,1.0,5.0,30.0,15.0,5.0,15.0,30.0,30.0,60.0,RR,60.04523500282045,
25.0,0.0,resp1,stim/right_resp_img.png,"[-0.5, 0]",right,stim/silver_coin.png,silver,,,,,training,,,silver,deval,,,,,0.0,0.0,0.0,0.0,2.0,0.0,4.0,0.0,,,,,,,,,0.0,training_resp,,293.39956634792907,14.430673289723927,4.0,19.0,right,silver,1.0,217.0,2.0,right,2023_Aug_10_1151,habits_v_MRI,5.0,40.0,1.0,5.0,30.0,15.0,5.0,15.0,30.0,30.0,60.0,RR,60.04523500282045,
25.0,0.0,resp1,stim/right_resp_img.png,"[-0.5, 0]",right,stim/silver_coin.png,silver,,,,,training,,,silver,deval,,,,,0.0,0.0,0.0,0.0,2.0,0.0,4.0,0.0,,,,,,,,,0.0,training_resp,,294.599328701428,15.630471125987242,4.0,,right,silver,0.0,217.0,2.0,right,2023_Aug_10_1151,habits_v_MRI,5.0,40.0,1.0,5.0,30.0,15.0,5.0,15.0,30.0,30.0,60.0,RR,60.04523500282045,
25.0,0.0,resp1,stim/right_resp_img.png,"[-0.5, 0]",right,stim/silver_coin.png,silver,,,,,training,,,silver,deval,,,,,0.0,0.0,0.0,0.0,2.0,0.0,4.0,0.0,,,,,,,,,0.0,training_resp,,295.04961017353344,16.08062503610563,4.0,,right,silver,0.0,217.0,2.0,right,2023_Aug_10_1151,habits_v_MRI,5.0,40.0,1.0,5.0,30.0,15.0,5.0,15.0,30.0,30.0,60.0,RR,60.04523500282045,
25.0,0.0,resp1,stim/right_resp_img.png,"[-0.5, 0]",right,stim/silver_coin.png,silver,,,,,training,,,silver,deval,,,,,0.0,0.0,0.0,0.0,2.0,0.0,4.0,0.0,,,,,,,,,0.0,training_resp,,295.5163104852836,16.54730218143959,4.0,,right,silver,0.0,217.0,2.0,right,2023_Aug_10_1151,habits_v_MRI,5.0,40.0,1.0,5.0,30.0,15.0,5.0,15.0,30.0,30.0,60.0,RR,60.04523500282045,
25.0,0.0,resp1,stim/right_resp_img.png,"[-0.5, 0]",right,stim/silver_coin.png,silver,,,,,training,,,silver,deval,,,,,0.0,0.0,0.0,0.0,2.0,0.0,4.0,0.0,,,,,,,,,0.0,training_resp,,295.96628404916555,16.99724319501547,4.0,,right,silver,0.0,217.0,2.0,right,2023_Aug_10_1151,habits_v_MRI,5.0,40.0,1.0,5.0,30.0,15.0,5.0,15.0,30.0,30.0,60.0,RR,60.04523500282045,
25.0,0.0,resp1,stim/right_resp_img.png,"[-0.5, 0]",right,stim/silver_coin.png,silver,,,,,training,,,silver,deval,,,,,0.0,0.0,0.0,0.0,2.0,0.0,4.0,0.0,,,,,,,,,0.0,training_resp,,296.416350278756,17.447216465647216,4.0,,right,silver,0.0,217.0,2.0,right,2023_Aug_10_1151,habits_v_MRI,5.0,40.0,1.0,5.0,30.0,15.0,5.0,15.0,30.0,30.0,60.0,RR,60.04523500282045,
25.0,0.0,resp1,stim/right_resp_img.png,"[-0.5, 0]",right,stim/silver_coin.png,silver,,,,,training,,,silver,deval,,,,,0.0,0.0,0.0,0.0,2.0,0.0,4.0,0.0,,,,,,,,,0.0,training_resp,,297.4494040802965,18.48046644871647,4.0,,right,silver,0.0,217.0,2.0,right,2023_Aug_10_1151,habits_v_MRI,5.0,40.0,1.0,5.0,30.0,15.0,5.0,15.0,30.0,30.0,60.0,RR,60.04523500282045,
25.0,0.0,resp1,stim/right_resp_img.png,"[-0.5, 0]",right,stim/silver_coin.png,silver,,,,,training,,,silver,deval,,,,,0.0,0.0,0.0,0.0,2.0,0.0,4.0,0.0,,,,,,,,,0.0,training_resp,,297.9327100293449,18.96375450976484,4.0,,right,silver,0.0,217.0,2.0,right,2023_Aug_10_1151,habits_v_MRI,5.0,40.0,1.0,5.0,30.0,15.0,5.0,15.0,30.0,30.0,60.0,RR,60.04523500282045,
25.0,0.0,resp1,stim/right_resp_img.png,"[-0.5, 0]",right,stim/silver_coin.png,silver,,,,,training,,,silver,deval,,,,,0.0,0.0,0.0,0.0,2.0,0.0,4.0,0.0,,,,,,,,,0.0,training_resp,,298.4159482385876,19.447042864063405,4.0,,right,silver,0.0,217.0,2.0,right,2023_Aug_10_1151,habits_v_MRI,5.0,40.0,1.0,5.0,30.0,15.0,5.0,15.0,30.0,30.0,60.0,RR,60.04523500282045,
25.0,0.0,resp1,stim/right_resp_img.png,"[-0.5, 0]",right,stim/silver_coin.png,silver,,,,,training,,,silver,deval,,,,,0.0,0.0,0.0,0.0,2.0,0.0,4.0,0.0,,,,,,,,,0.0,training_resp,,298.88265705446247,19.913721182369045,4.0,,right,silver,0.0,217.0,2.0,right,2023_Aug_10_1151,habits_v_MRI,5.0,40.0,1.0,5.0,30.0,15.0,5.0,15.0,30.0,30.0,60.0,RR,60.04523500282045,
25.0,0.0,resp1,stim/right_resp_img.png,"[-0.5, 0]",right,stim/silver_coin.png,silver,,,,,training,,,silver,deval,,,,,0.0,0.0,0.0,0.0,2.0,0.0,4.0,0.0,,,,,,,,,0.0,training_resp,,299.3658031844825,20.396972001180984,4.0,,right,silver,0.0,217.0,2.0,right,2023_Aug_10_1151,habits_v_MRI,5.0,40.0,1.0,5.0,30.0,15.0,5.0,15.0,30.0,30.0,60.0,RR,60.04523500282045,
25.0,0.0,resp1,stim/right_resp_img.png,"[-0.5, 0]",right,stim/silver_coin.png,silver,,,,,training,,,silver,deval,,,,,0.0,0.0,0.0,0.0,2.0,0.0,4.0,0.0,,,,,,,,,0.0,training_resp,,300.66591517510824,21.696957309555728,4.0,,right,silver,0.0,217.0,2.0,right,2023_Aug_10_1151,habits_v_MRI,5.0,40.0,1.0,5.0,30.0,15.0,5.0,15.0,30.0,30.0,60.0,RR,60.04523500282045,
25.0,0.0,resp1,stim/right_resp_img.png,"[-0.5, 0]",right,stim/silver_coin.png,silver,,,,,training,,,silver,deval,,,,,0.0,0.0,0.0,0.0,2.0,0.0,4.0,0.0,,,,,,,,,0.0,training_resp,,302.2657752381492,23.296845817458237,4.0,,right,silver,0.0,217.0,2.0,right,2023_Aug_10_1151,habits_v_MRI,5.0,40.0,1.0,5.0,30.0,15.0,5.0,15.0,30.0,30.0,60.0,RR,60.04523500282045,
25.0,0.0,resp1,stim/right_resp_img.png,"[-0.5, 0]",right,stim/silver_coin.png,silver,,,,,training,,,silver,deval,,,,,0.0,0.0,0.0,0.0,2.0,0.0,4.0,0.0,,,,,,,,,0.0,training_resp,,303.89896739310643,24.930023310123943,4.0,,right,silver,0.0,217.0,2.0,right,2023_Aug_10_1151,habits_v_MRI,5.0,40.0,1.0,5.0,30.0,15.0,5.0,15.0,30.0,30.0,60.0,RR,60.04523500282045,
25.0,0.0,resp1,stim/right_resp_img.png,"[-0.5, 0]",right,stim/silver_coin.png,silver,,,,,training,,,silver,deval,,,,,0.0,0.0,0.0,0.0,2.0,0.0,4.0,0.0,,,,,,,,,0.0,training_resp,,304.51562487629417,25.546694869117346,4.0,,right,silver,0.0,217.0,2.0,right,2023_Aug_10_1151,habits_v_MRI,5.0,40.0,1.0,5.0,30.0,15.0,5.0,15.0,30.0,30.0,60.0,RR,60.04523500282045,
25.0,0.0,resp1,stim/right_resp_img.png,"[-0.5, 0]",right,stim/silver_coin.png,silver,,,,,training,,,silver,deval,,,,,0.0,0.0,0.0,0.0,2.0,0.0,4.0,0.0,,,,,,,,,0.0,training_resp,,305.1156192459748,26.14669569020043,4.0,,right,silver,0.0,217.0,2.0,right,2023_Aug_10_1151,habits_v_MRI,5.0,40.0,1.0,5.0,30.0,15.0,5.0,15.0,30.0,30.0,60.0,RR,60.04523500282045,
25.0,0.0,resp1,stim/right_resp_img.png,"[-0.5, 0]",right,stim/silver_coin.png,silver,,,,,training,,,silver,deval,,,,,0.0,0.0,0.0,0.0,2.0,0.0,4.0,0.0,,,,,,,,,0.0,training_resp,,305.7155628840992,26.746624666033316,4.0,,right,silver,0.0,217.0,2.0,right,2023_Aug_10_1151,habits_v_MRI,5.0,40.0,1.0,5.0,30.0,15.0,5.0,15.0,30.0,30.0,60.0,RR,60.04523500282045,
25.0,0.0,resp1,stim/right_resp_img.png,"[-0.5, 0]",right,stim/silver_coin.png,silver,,,,,training,,,silver,deval,,,,,0.0,0.0,0.0,0.0,2.0,0.0,4.0,0.0,,,,,,,,,0.0,training_resp,,306.3487714608491,27.379888373005087,4.0,,right,silver,0.0,217.0,2.0,right,2023_Aug_10_1151,habits_v_MRI,5.0,40.0,1.0,5.0,30.0,15.0,5.0,15.0,30.0,30.0,60.0,RR,60.04523500282045,
25.0,0.0,resp1,stim/right_resp_img.png,"[-0.5, 0]",right,stim/silver_coin.png,silver,,,,,training,,,silver,deval,,,,,0.0,0.0,0.0,0.0,2.0,0.0,4.0,0.0,,,,,,,,,0.0,training_resp,,307.0158684170456,28.04656364156108,4.0,,right,silver,0.0,217.0,2.0,right,2023_Aug_10_1151,habits_v_MRI,5.0,40.0,1.0,5.0,30.0,15.0,5.0,15.0,30.0,30.0,60.0,RR,60.04523500282045,
25.0,0.0,resp1,stim/right_resp_img.png,"[-0.5, 0]",right,stim/silver_coin.png,silver,,,,,training,,,silver,deval,,,,,0.0,0.0,0.0,0.0,2.0,0.0,4.0,0.0,,,,,,,,,0.0,training_resp,,307.6154290759878,28.646487632213397,4.0,7.0,right,silver,1.0,217.0,2.0,right,2023_Aug_10_1151,habits_v_MRI,5.0,40.0,1.0,5.0,30.0,15.0,5.0,15.0,30.0,30.0,60.0,RR,60.04523500282045,
25.0,0.0,resp1,stim/right_resp_img.png,"[-0.5, 0]",right,stim/silver_coin.png,silver,,,,,training,,,silver,deval,,,,,0.0,0.0,0.0,0.0,2.0,0.0,4.0,0.0,,,,,,,,,0.0,training_resp,,308.3152830688341,29.346438396227317,4.0,,right,silver,0.0,217.0,2.0,right,2023_Aug_10_1151,habits_v_MRI,5.0,40.0,1.0,5.0,30.0,15.0,5.0,15.0,30.0,30.0,60.0,RR,60.04523500282045,
25.0,0.0,resp1,stim/right_resp_img.png,"[-0.5, 0]",right,stim/silver_coin.png,silver,,,,,training,,,silver,deval,,,,,0.0,0.0,0.0,0.0,2.0,0.0,4.0,0.0,,,,,,,,,0.0,training_resp,,309.1819884244178,30.21307923769928,4.0,,right,silver,0.0,217.0,2.0,right,2023_Aug_10_1151,habits_v_MRI,5.0,40.0,1.0,5.0,30.0,15.0,5.0,15.0,30.0,30.0,60.0,RR,60.04523500282045,
25.0,0.0,resp1,stim/right_resp_img.png,"[-0.5, 0]",right,stim/silver_coin.png,silver,,,,,training,,,silver,deval,,,,,0.0,0.0,0.0,0.0,2.0,0.0,4.0,0.0,,,,,,,,,0.0,training_resp,,309.7819338220288,30.813029913726496,4.0,,right,silver,0.0,217.0,2.0,right,2023_Aug_10_1151,habits_v_MRI,5.0,40.0,1.0,5.0,30.0,15.0,5.0,15.0,30.0,30.0,60.0,RR,60.04523500282045,
25.0,0.0,resp1,stim/right_resp_img.png,"[-0.5, 0]",right,stim/silver_coin.png,silver,,,,,training,,,silver,deval,,,,,0.0,0.0,0.0,0.0,2.0,0.0,4.0,0.0,,,,,,,,,0.0,training_resp,,310.3819117699313,31.41298352222657,4.0,,right,silver,0.0,217.0,2.0,right,2023_Aug_10_1151,habits_v_MRI,5.0,40.0,1.0,5.0,30.0,15.0,5.0,15.0,30.0,30.0,60.0,RR,60.04523500282045,
25.0,0.0,resp1,stim/right_resp_img.png,"[-0.5, 0]",right,stim/silver_coin.png,silver,,,,,training,,,silver,deval,,,,,0.0,0.0,0.0,0.0,2.0,0.0,4.0,0.0,,,,,,,,,0.0,training_resp,,310.93185668368824,31.96294075230253,4.0,,right,silver,0.0,217.0,2.0,right,2023_Aug_10_1151,habits_v_MRI,5.0,40.0,1.0,5.0,30.0,15.0,5.0,15.0,30.0,30.0,60.0,RR,60.04523500282045,
25.0,0.0,resp1,stim/right_resp_img.png,"[-0.5, 0]",right,stim/silver_coin.png,silver,,,,,training,,,silver,deval,,,,,0.0,0.0,0.0,0.0,2.0,0.0,4.0,0.0,,,,,,,,,0.0,training_resp,,311.54850918168086,32.5795601135178,4.0,,right,silver,0.0,217.0,2.0,right,2023_Aug_10_1151,habits_v_MRI,5.0,40.0,1.0,5.0,30.0,15.0,5.0,15.0,30.0,30.0,60.0,RR,60.04523500282045,
25.0,0.0,resp1,stim/right_resp_img.png,"[-0.5, 0]",right,stim/silver_coin.png,silver,,,,,training,,,silver,deval,,,,,0.0,0.0,0.0,0.0,2.0,0.0,4.0,0.0,,,,,,,,,0.0,training_resp,,312.1152172058064,33.14634790053242,4.0,20.0,right,silver,1.0,217.0,2.0,right,2023_Aug_10_1151,habits_v_MRI,5.0,40.0,1.0,5.0,30.0,15.0,5.0,15.0,30.0,30.0,60.0,RR,60.04523500282045,
25.0,0.0,resp1,stim/right_resp_img.png,"[-0.5, 0]",right,stim/silver_coin.png,silver,,,,,training,,,silver,deval,,,,,0.0,0.0,0.0,0.0,2.0,0.0,4.0,0.0,,,,,,,,,0.0,training_resp,,313.48173649683304,34.512805903170374,4.0,,right,silver,0.0,217.0,2.0,right,2023_Aug_10_1151,habits_v_MRI,5.0,40.0,1.0,5.0,30.0,15.0,5.0,15.0,30.0,30.0,60.0,RR,60.04523500282045,
25.0,0.0,resp1,stim/right_resp_img.png,"[-0.5, 0]",right,stim/silver_coin.png,silver,,,,,training,,,silver,deval,,,,,0.0,0.0,0.0,0.0,2.0,0.0,4.0,0.0,,,,,,,,,0.0,training_resp,,314.8483581307082,35.87940554358647,4.0,,right,silver,0.0,217.0,2.0,right,2023_Aug_10_1151,habits_v_MRI,5.0,40.0,1.0,5.0,30.0,15.0,5.0,15.0,30.0,30.0,60.0,RR,60.04523500282045,
25.0,0.0,resp1,stim/right_resp_img.png,"[-0.5, 0]",right,stim/silver_coin.png,silver,,,,,training,,,silver,deval,,,,,0.0,0.0,0.0,0.0,2.0,0.0,4.0,0.0,,,,,,,,,0.0,training_resp,,315.3315837303672,36.36268040856521,4.0,,right,silver,0.0,217.0,2.0,right,2023_Aug_10_1151,habits_v_MRI,5.0,40.0,1.0,5.0,30.0,15.0,5.0,15.0,30.0,30.0,60.0,RR,60.04523500282045,
25.0,0.0,resp1,stim/right_resp_img.png,"[-0.5, 0]",right,stim/silver_coin.png,silver,,,,,training,,,silver,deval,,,,,0.0,0.0,0.0,0.0,2.0,0.0,4.0,0.0,,,,,,,,,0.0,training_resp,,315.86538047046633,36.89596924671787,4.0,,right,silver,0.0,217.0,2.0,right,2023_Aug_10_1151,habits_v_MRI,5.0,40.0,1.0,5.0,30.0,15.0,5.0,15.0,30.0,30.0,60.0,RR,60.04523500282045,
25.0,0.0,resp1,stim/right_resp_img.png,"[-0.5, 0]",right,stim/silver_coin.png,silver,,,,,training,,,silver,deval,,,,,0.0,0.0,0.0,0.0,2.0,0.0,4.0,0.0,,,,,,,,,0.0,training_resp,,317.5815222220408,38.61254793472472,4.0,,right,silver,0.0,217.0,2.0,right,2023_Aug_10_1151,habits_v_MRI,5.0,40.0,1.0,5.0,30.0,15.0,5.0,15.0,30.0,30.0,60.0,RR,60.04523500282045,
25.0,0.0,resp1,stim/right_resp_img.png,"[-0.5, 0]",right,stim/silver_coin.png,silver,,,,,training,,,silver,deval,,,,,0.0,0.0,0.0,0.0,2.0,0.0,4.0,0.0,,,,,,,,,0.0,training_resp,,319.0481635913602,40.0791547010158,4.0,,right,silver,0.0,217.0,2.0,right,2023_Aug_10_1151,habits_v_MRI,5.0,40.0,1.0,5.0,30.0,15.0,5.0,15.0,30.0,30.0,60.0,RR,60.04523500282045,
25.0,0.0,resp1,stim/right_resp_img.png,"[-0.5, 0]",right,stim/silver_coin.png,silver,,,,,training,,,silver,deval,,,,,0.0,0.0,0.0,0.0,2.0,0.0,4.0,0.0,,,,,,,,,0.0,training_resp,,319.5646248050325,40.595728521133424,4.0,,right,silver,0.0,217.0,2.0,right,2023_Aug_10_1151,habits_v_MRI,5.0,40.0,1.0,5.0,30.0,15.0,5.0,15.0,30.0,30.0,60.0,RR,60.04523500282045,
25.0,0.0,resp1,stim/right_resp_img.png,"[-0.5, 0]",right,stim/silver_coin.png,silver,,,,,training,,,silver,deval,,,,,0.0,0.0,0.0,0.0,2.0,0.0,4.0,0.0,,,,,,,,,0.0,training_resp,,320.1314073136164,41.1624315600784,4.0,,right,silver,0.0,217.0,2.0,right,2023_Aug_10_1151,habits_v_MRI,5.0,40.0,1.0,5.0,30.0,15.0,5.0,15.0,30.0,30.0,60.0,RR,60.04523500282045,
25.0,0.0,resp1,stim/right_resp_img.png,"[-0.5, 0]",right,stim/silver_coin.png,silver,,,,,training,,,silver,deval,,,,,0.0,0.0,0.0,0.0,2.0,0.0,4.0,0.0,,,,,,,,,0.0,training_resp,,320.64843243922223,41.67940976632235,4.0,,right,silver,0.0,217.0,2.0,right,2023_Aug_10_1151,habits_v_MRI,5.0,40.0,1.0,5.0,30.0,15.0,5.0,15.0,30.0,30.0,60.0,RR,60.04523500282045,
25.0,0.0,resp1,stim/right_resp_img.png,"[-0.5, 0]",right,stim/silver_coin.png,silver,,,,,training,,,silver,deval,,,,,0.0,0.0,0.0,0.0,2.0,0.0,4.0,0.0,,,,,,,,,0.0,training_resp,,322.5978029428516,43.62887440189661,4.0,,right,silver,0.0,217.0,2.0,right,2023_Aug_10_1151,habits_v_MRI,5.0,40.0,1.0,5.0,30.0,15.0,5.0,15.0,30.0,30.0,60.0,RR,60.04523500282045,
25.0,0.0,resp1,stim/right_resp_img.png,"[-0.5, 0]",right,stim/silver_coin.png,silver,,,,,training,,,silver,deval,,,,,0.0,0.0,0.0,0.0,2.0,0.0,4.0,0.0,,,,,,,,,0.0,training_resp,,323.1644831086014,44.195568056966295,4.0,,right,silver,0.0,217.0,2.0,right,2023_Aug_10_1151,habits_v_MRI,5.0,40.0,1.0,5.0,30.0,15.0,5.0,15.0,30.0,30.0,60.0,RR,60.04523500282045,
25.0,0.0,resp1,stim/right_resp_img.png,"[-0.5, 0]",right,stim/silver_coin.png,silver,,,,,training,,,silver,deval,,,,,0.0,0.0,0.0,0.0,2.0,0.0,4.0,0.0,,,,,,,,,0.0,training_resp,,323.73106796943466,44.76208957667404,4.0,,right,silver,0.0,217.0,2.0,right,2023_Aug_10_1151,habits_v_MRI,5.0,40.0,1.0,5.0,30.0,15.0,5.0,15.0,30.0,30.0,60.0,RR,60.04523500282045,
25.0,0.0,resp1,stim/right_resp_img.png,"[-0.5, 0]",right,stim/silver_coin.png,silver,,,,,training,,,silver,deval,,,,,0.0,0.0,0.0,0.0,2.0,0.0,4.0,0.0,,,,,,,,,0.0,training_resp,,325.4310292902956,46.46208843300701,4.0,,right,silver,0.0,217.0,2.0,right,2023_Aug_10_1151,habits_v_MRI,5.0,40.0,1.0,5.0,30.0,15.0,5.0,15.0,30.0,30.0,60.0,RR,60.04523500282045,
25.0,0.0,resp1,stim/right_resp_img.png,"[-0.5, 0]",right,stim/silver_coin.png,silver,,,,,training,,,silver,deval,,,,,0.0,0.0,0.0,0.0,2.0,0.0,4.0,0.0,,,,,,,,,0.0,training_resp,,326.3476283882046,47.37868342548609,4.0,,right,silver,0.0,217.0,2.0,right,2023_Aug_10_1151,habits_v_MRI,5.0,40.0,1.0,5.0,30.0,15.0,5.0,15.0,30.0,30.0,60.0,RR,60.04523500282045,
25.0,0.0,resp1,stim/right_resp_img.png,"[-0.5, 0]",right,stim/silver_coin.png,silver,,,,,training,,,silver,deval,,,,,0.0,0.0,0.0,0.0,2.0,0.0,4.0,0.0,,,,,,,,,0.0,training_resp,,327.96423777905875,48.99516935979773,4.0,,right,silver,0.0,217.0,2.0,right,2023_Aug_10_1151,habits_v_MRI,5.0,40.0,1.0,5.0,30.0,15.0,5.0,15.0,30.0,30.0,60.0,RR,60.04523500282045,
25.0,0.0,resp1,stim/right_resp_img.png,"[-0.5, 0]",right,stim/silver_coin.png,silver,,,,,training,,,silver,deval,,,,,0.0,0.0,0.0,0.0,2.0,0.0,4.0,0.0,,,,,,,,,0.0,training_resp,,328.5641001880722,49.59518015124195,4.0,,right,silver,0.0,217.0,2.0,right,2023_Aug_10_1151,habits_v_MRI,5.0,40.0,1.0,5.0,30.0,15.0,5.0,15.0,30.0,30.0,60.0,RR,60.04523500282045,
25.0,0.0,resp1,stim/right_resp_img.png,"[-0.5, 0]",right,stim/silver_coin.png,silver,,,,,training,,,silver,deval,,,,,0.0,0.0,0.0,0.0,2.0,0.0,4.0,0.0,,,,,,,,,0.0,training_resp,,329.114213131732,50.14514617870736,4.0,,right,silver,0.0,217.0,2.0,right,2023_Aug_10_1151,habits_v_MRI,5.0,40.0,1.0,5.0,30.0,15.0,5.0,15.0,30.0,30.0,60.0,RR,60.04523500282045,
25.0,0.0,resp1,stim/right_resp_img.png,"[-0.5, 0]",right,stim/silver_coin.png,silver,,,,,training,,,silver,deval,,,,,0.0,0.0,0.0,0.0,2.0,0.0,4.0,0.0,,,,,,,,,0.0,training_resp,,329.6473846715089,50.67846580767946,4.0,,right,silver,0.0,217.0,2.0,right,2023_Aug_10_1151,habits_v_MRI,5.0,40.0,1.0,5.0,30.0,15.0,5.0,15.0,30.0,30.0,60.0,RR,60.04523500282045,
25.0,0.0,resp1,stim/right_resp_img.png,"[-0.5, 0]",right,stim/silver_coin.png,silver,,,,,training,,,silver,deval,,,,,0.0,0.0,0.0,0.0,2.0,0.0,4.0,0.0,,,,,,,,,0.0,training_resp,,330.16403649504355,51.19515839239466,4.0,,right,silver,0.0,217.0,2.0,right,2023_Aug_10_1151,habits_v_MRI,5.0,40.0,1.0,5.0,30.0,15.0,5.0,15.0,30.0,30.0,60.0,RR,60.04523500282045,
25.0,0.0,resp1,stim/right_resp_img.png,"[-0.5, 0]",right,stim/silver_coin.png,silver,,,,,training,,,silver,deval,,,,,0.0,0.0,0.0,0.0,2.0,0.0,4.0,0.0,,,,,,,,,0.0,training_resp,,330.64725828252267,51.67834293763735,4.0,18.0,right,silver,1.0,217.0,2.0,right,2023_Aug_10_1151,habits_v_MRI,5.0,40.0,1.0,5.0,30.0,15.0,5.0,15.0,30.0,30.0,60.0,RR,60.04523500282045,
25.0,0.0,resp1,stim/right_resp_img.png,"[-0.5, 0]",right,stim/silver_coin.png,silver,,,,,training,,,silver,deval,,,,,0.0,0.0,0.0,0.0,2.0,0.0,4.0,0.0,,,,,,,,,0.0,training_resp,,332.1805773249944,53.21164819755359,4.0,,right,silver,0.0,217.0,2.0,right,2023_Aug_10_1151,habits_v_MRI,5.0,40.0,1.0,5.0,30.0,15.0,5.0,15.0,30.0,30.0,60.0,RR,60.04523500282045,
25.0,0.0,resp1,stim/right_resp_img.png,"[-0.5, 0]",right,stim/silver_coin.png,silver,,,,,training,,,silver,deval,,,,,0.0,0.0,0.0,0.0,2.0,0.0,4.0,0.0,,,,,,,,,0.0,training_resp,,332.81386566463334,53.84498404302576,4.0,,right,silver,0.0,217.0,2.0,right,2023_Aug_10_1151,habits_v_MRI,5.0,40.0,1.0,5.0,30.0,15.0,5.0,15.0,30.0,30.0,60.0,RR,60.04523500282045,
25.0,0.0,resp1,stim/right_resp_img.png,"[-0.5, 0]",right,stim/silver_coin.png,silver,,,,,training,,,silver,deval,,,,,0.0,0.0,0.0,0.0,2.0,0.0,4.0,0.0,,,,,,,,,0.0,training_resp,,333.4305049665709,54.46164885736653,4.0,,right,silver,0.0,217.0,2.0,right,2023_Aug_10_1151,habits_v_MRI,5.0,40.0,1.0,5.0,30.0,15.0,5.0,15.0,30.0,30.0,60.0,RR,60.04523500282045,
25.0,0.0,resp1,stim/right_resp_img.png,"[-0.5, 0]",right,stim/silver_coin.png,silver,,,,,training,,,silver,deval,,,,,0.0,0.0,0.0,0.0,2.0,0.0,4.0,0.0,,,,,,,,,0.0,training_resp,,334.01382654561894,55.044871319289086,4.0,,right,silver,0.0,217.0,2.0,right,2023_Aug_10_1151,habits_v_MRI,5.0,40.0,1.0,5.0,30.0,15.0,5.0,15.0,30.0,30.0,60.0,RR,60.04523500282045,
25.0,0.0,resp1,stim/right_resp_img.png,"[-0.5, 0]",right,stim/silver_coin.png,silver,,,,,training,,,silver,deval,,,,,0.0,0.0,0.0,0.0,2.0,0.0,4.0,0.0,,,,,,,,,0.0,training_resp,,334.99712853586243,56.02817741496256,4.0,,right,silver,0.0,217.0,2.0,right,2023_Aug_10_1151,habits_v_MRI,5.0,40.0,1.0,5.0,30.0,15.0,5.0,15.0,30.0,30.0,60.0,RR,60.04523500282045,
25.0,0.0,resp1,stim/right_resp_img.png,"[-0.5, 0]",right,stim/silver_coin.png,silver,,,,,training,,,silver,deval,,,,,0.0,0.0,0.0,0.0,2.0,0.0,4.0,0.0,,,,,,,,,0.0,training_resp,,335.7136952007713,56.744742320413934,4.0,,right,silver,0.0,217.0,2.0,right,2023_Aug_10_1151,habits_v_MRI,5.0,40.0,1.0,5.0,30.0,15.0,5.0,15.0,30.0,30.0,60.0,RR,60.04523500282045,
25.0,0.0,resp1,stim/right_resp_img.png,"[-0.5, 0]",right,stim/silver_coin.png,silver,,,,,training,,,silver,deval,,,,,0.0,0.0,0.0,0.0,2.0,0.0,4.0,0.0,,,,,,,,,0.0,training_resp,,336.34706183706294,57.37811863381648,4.0,,right,silver,0.0,217.0,2.0,right,2023_Aug_10_1151,habits_v_MRI,5.0,40.0,1.0,5.0,30.0,15.0,5.0,15.0,30.0,30.0,60.0,RR,60.04523500282045,
25.0,0.0,resp1,stim/right_resp_img.png,"[-0.5, 0]",right,stim/silver_coin.png,silver,,,,,training,,,silver,deval,,,,,0.0,0.0,0.0,0.0,2.0,0.0,4.0,0.0,,,,,,,,,0.0,training_resp,,337.63027729043097,58.66135021569789,4.0,,right,silver,0.0,217.0,2.0,right,2023_Aug_10_1151,habits_v_MRI,5.0,40.0,1.0,5.0,30.0,15.0,5.0,15.0,30.0,30.0,60.0,RR,60.04523500282045,
25.0,0.0,resp1,stim/right_resp_img.png,"[-0.5, 0]",right,stim/silver_coin.png,silver,,,,,training,,,silver,deval,,,,,0.0,0.0,0.0,0.0,2.0,0.0,4.0,0.0,,,,,,,,,0.0,ITI_start,21.666666666666668,338.6463583107543,59.67794353667705,,,,,,217.0,2.0,right,2023_Aug_10_1151,habits_v_MRI,5.0,40.0,1.0,5.0,30.0,15.0,5.0,15.0,30.0,30.0,60.0,RR,60.04523500282045,
25.0,1.0,resp2,stim/left_resp_img.png,"[0.5, 0]",left,stim/gold_coin.png,silver,,,,,training,,,gold,val,,,,,0.0,0.0,0.0,0.0,2.0,1.0,5.0,1.0,,,,,,,,,0.0,training_period_start,30.0,360.34862043919566,0.0,5.0,26.0,,,,217.0,2.0,right,2023_Aug_10_1151,habits_v_MRI,5.0,40.0,1.0,5.0,30.0,15.0,5.0,15.0,30.0,30.0,60.0,RR,60.04523500282045,
25.0,1.0,resp2,stim/left_resp_img.png,"[0.5, 0]",left,stim/gold_coin.png,silver,,,,,training,,,gold,val,,,,,0.0,0.0,0.0,0.0,2.0,1.0,5.0,1.0,,,,,,,,,0.0,training_resp,,362.1121618764592,1.7814696137211286,5.0,,left,gold,0.0,217.0,2.0,right,2023_Aug_10_1151,habits_v_MRI,5.0,40.0,1.0,5.0,30.0,15.0,5.0,15.0,30.0,30.0,60.0,RR,60.04523500282045,
