list,trial_num_python,condition,stimulus,position,corrResp,coin_img,devalued_coin,stimulus_choice1,stimulus_choice2,position1,position2,phase,corrResp1,corrResp2,outcome,cond_val,outcome_choice1,outcome_choice2,cond_val1,cond_val2,blockLoop.thisRepN,blockLoop.thisTrialN,blockLoop.thisN,blockLoop.thisIndex,trialLoop.thisRepN,trialLoop.thisTrialN,trialLoop.thisN,trialLoop.thisIndex,choice_trialLoop.thisRepN,choice_trialLoop.thisTrialN,choice_trialLoop.thisN,choice_trialLoop.thisIndex,contingency_trialLoop.thisRepN,contingency_trialLoop.thisTrialN,contingency_trialLoop.thisN,contingency_trialLoop.thisIndex,run,event,duration,globalClock_t,routineClock_t,trial,nResp_untilRnf,resp,selected_coin,wasRnf,participant,task_ordering,hand,date,expName,n_repeat_training,credits_per_rnf,cost_response,min_resp_bet_rnf,max_resp_bet_rnf,mean_resp_bet_rnf,sigma_resp_bet_rnf,min_ITI,max_ITI,min_trial_duration,max_trial_duration,schedule,frameRate,Unnamed: 65
16.0,0.0,resp1,stim/right_resp_img.png,"[-0.5, 0]",right,stim/gold_coin.png,gold,,,,,training,,,gold,deval,,,,,0.0,0.0,0.0,0.0,0.0,0.0,0.0,0.0,,,,,,,,,0.0,instr_before_block,6.0,0.0057934005744755,,,,,,,48.0,2.0,right,2021_Nov_12_1113,habits_v_MRI,5.0,40.0,1.0,5.0,30.0,15.0,5.0,15.0,30.0,30.0,60.0,RR,59.96664112031071,
16.0,0.0,resp1,stim/right_resp_img.png,"[-0.5, 0]",right,stim/gold_coin.png,gold,,,,,training,,,gold,deval,,,,,0.0,0.0,0.0,0.0,0.0,0.0,0.0,0.0,,,,,,,,,0.0,training_period_start,37.5,6.042458154261112,0.0,0.0,16.0,,,,48.0,2.0,right,2021_Nov_12_1113,habits_v_MRI,5.0,40.0,1.0,5.0,30.0,15.0,5.0,15.0,30.0,30.0,60.0,RR,59.96664112031071,
16.0,0.0,resp1,stim/right_resp_img.png,"[-0.5, 0]",right,stim/gold_coin.png,gold,,,,,training,,,gold,deval,,,,,0.0,0.0,0.0,0.0,0.0,0.0,0.0,0.0,,,,,,,,,0.0,training_resp,,7.539186829933897,1.5157754039391875,0.0,,right,gold,0.0,48.0,2.0,right,2021_Nov_12_1113,habits_v_MRI,5.0,40.0,1.0,5.0,30.0,15.0,5.0,15.0,30.0,30.0,60.0,RR,59.96664112031071,
16.0,0.0,resp1,stim/right_resp_img.png,"[-0.5, 0]",right,stim/gold_coin.png,gold,,,,,training,,,gold,deval,,,,,0.0,0.0,0.0,0.0,0.0,0.0,0.0,0.0,,,,,,,,,0.0,training_resp,,9.189891342772173,3.166628886712715,0.0,,right,gold,0.0,48.0,2.0,right,2021_Nov_12_1113,habits_v_MRI,5.0,40.0,1.0,5.0,30.0,15.0,5.0,15.0,30.0,30.0,60.0,RR,59.96664112031071,
16.0,0.0,resp1,stim/right_resp_img.png,"[-0.5, 0]",right,stim/gold_coin.png,gold,,,,,training,,,gold,deval,,,,,0.0,0.0,0.0,0.0,0.0,0.0,0.0,0.0,,,,,,,,,0.0,training_resp,,10.87382374680601,4.8504316753242165,0.0,,right,gold,0.0,48.0,2.0,right,2021_Nov_12_1113,habits_v_MRI,5.0,40.0,1.0,5.0,30.0,15.0,5.0,15.0,30.0,30.0,60.0,RR,59.96664112031071,
16.0,0.0,resp1,stim/right_resp_img.png,"[-0.5, 0]",right,stim/gold_coin.png,gold,,,,,training,,,gold,deval,,,,,0.0,0.0,0.0,0.0,0.0,0.0,0.0,0.0,,,,,,,,,0.0,training_resp,,11.290381154278291,5.2671389321330935,0.0,,right,gold,0.0,48.0,2.0,right,2021_Nov_12_1113,habits_v_MRI,5.0,40.0,1.0,5.0,30.0,15.0,5.0,15.0,30.0,30.0,60.0,RR,59.96664112031071,
16.0,0.0,resp1,stim/right_resp_img.png,"[-0.5, 0]",right,stim/gold_coin.png,gold,,,,,training,,,gold,deval,,,,,0.0,0.0,0.0,0.0,0.0,0.0,0.0,0.0,,,,,,,,,0.0,training_resp,,25.828571235761046,19.805101746693254,0.0,,right,gold,0.0,48.0,2.0,right,2021_Nov_12_1113,habits_v_MRI,5.0,40.0,1.0,5.0,30.0,15.0,5.0,15.0,30.0,30.0,60.0,RR,59.96664112031071,
16.0,0.0,resp1,stim/right_resp_img.png,"[-0.5, 0]",right,stim/gold_coin.png,gold,,,,,training,,,gold,deval,,,,,0.0,0.0,0.0,0.0,0.0,0.0,0.0,0.0,,,,,,,,,0.0,training_resp,,32.063464363105595,26.04002243932337,0.0,,left,,,48.0,2.0,right,2021_Nov_12_1113,habits_v_MRI,5.0,40.0,1.0,5.0,30.0,15.0,5.0,15.0,30.0,30.0,60.0,RR,59.96664112031071,
16.0,0.0,resp1,stim/right_resp_img.png,"[-0.5, 0]",right,stim/gold_coin.png,gold,,,,,training,,,gold,deval,,,,,0.0,0.0,0.0,0.0,0.0,0.0,0.0,0.0,,,,,,,,,0.0,training_resp,,36.84816135186702,30.82473760936409,0.0,,right,gold,0.0,48.0,2.0,right,2021_Nov_12_1113,habits_v_MRI,5.0,40.0,1.0,5.0,30.0,15.0,5.0,15.0,30.0,30.0,60.0,RR,59.96664112031071,
16.0,0.0,resp1,stim/right_resp_img.png,"[-0.5, 0]",right,stim/gold_coin.png,gold,,,,,training,,,gold,deval,,,,,0.0,0.0,0.0,0.0,0.0,0.0,0.0,0.0,,,,,,,,,0.0,training_resp,,40.63282461697236,34.60930029070005,0.0,,right,gold,0.0,48.0,2.0,right,2021_Nov_12_1113,habits_v_MRI,5.0,40.0,1.0,5.0,30.0,15.0,5.0,15.0,30.0,30.0,60.0,RR,59.96664112031071,
16.0,0.0,resp1,stim/right_resp_img.png,"[-0.5, 0]",right,stim/gold_coin.png,gold,,,,,training,,,gold,deval,,,,,0.0,0.0,0.0,0.0,0.0,0.0,0.0,0.0,,,,,,,,,0.0,ITI_start,28.333333333333336,43.19960605097003,37.1765937351156,,,,,,48.0,2.0,right,2021_Nov_12_1113,habits_v_MRI,5.0,40.0,1.0,5.0,30.0,15.0,5.0,15.0,30.0,30.0,60.0,RR,59.96664112031071,
16.0,1.0,resp2,stim/left_resp_img.png,"[0.5, 0]",left,stim/silver_coin.png,gold,,,,,training,,,silver,val,,,,,0.0,0.0,0.0,0.0,0.0,1.0,1.0,1.0,,,,,,,,,0.0,training_period_start,60.0,71.56247773137875,0.0,1.0,21.0,,,,48.0,2.0,right,2021_Nov_12_1113,habits_v_MRI,5.0,40.0,1.0,5.0,30.0,15.0,5.0,15.0,30.0,30.0,60.0,RR,59.96664112031071,
16.0,1.0,resp2,stim/left_resp_img.png,"[0.5, 0]",left,stim/silver_coin.png,gold,,,,,training,,,silver,val,,,,,0.0,0.0,0.0,0.0,0.0,1.0,1.0,1.0,,,,,,,,,0.0,training_resp,,72.85967484093271,1.3161670067347586,1.0,,left,silver,0.0,48.0,2.0,right,2021_Nov_12_1113,habits_v_MRI,5.0,40.0,1.0,5.0,30.0,15.0,5.0,15.0,30.0,30.0,60.0,RR,59.96664112031071,
16.0,1.0,resp2,stim/left_resp_img.png,"[0.5, 0]",left,stim/silver_coin.png,gold,,,,,training,,,silver,val,,,,,0.0,0.0,0.0,0.0,0.0,1.0,1.0,1.0,,,,,,,,,0.0,training_resp,,73.09311492624693,1.549486274132505,1.0,,left,silver,0.0,48.0,2.0,right,2021_Nov_12_1113,habits_v_MRI,5.0,40.0,1.0,5.0,30.0,15.0,5.0,15.0,30.0,30.0,60.0,RR,59.96664112031071,
16.0,1.0,resp2,stim/left_resp_img.png,"[0.5, 0]",left,stim/silver_coin.png,gold,,,,,training,,,silver,val,,,,,0.0,0.0,0.0,0.0,0.0,1.0,1.0,1.0,,,,,,,,,0.0,training_resp,,74.10907610272989,2.5658442145213485,1.0,,left,silver,0.0,48.0,2.0,right,2021_Nov_12_1113,habits_v_MRI,5.0,40.0,1.0,5.0,30.0,15.0,5.0,15.0,30.0,30.0,60.0,RR,59.96664112031071,
16.0,1.0,resp2,stim/left_resp_img.png,"[0.5, 0]",left,stim/silver_coin.png,gold,,,,,training,,,silver,val,,,,,0.0,0.0,0.0,0.0,0.0,1.0,1.0,1.0,,,,,,,,,0.0,training_resp,,74.95950777782127,3.415866222698241,1.0,,left,silver,0.0,48.0,2.0,right,2021_Nov_12_1113,habits_v_MRI,5.0,40.0,1.0,5.0,30.0,15.0,5.0,15.0,30.0,30.0,60.0,RR,59.96664112031071,
16.0,1.0,resp2,stim/left_resp_img.png,"[0.5, 0]",left,stim/silver_coin.png,gold,,,,,training,,,silver,val,,,,,0.0,0.0,0.0,0.0,0.0,1.0,1.0,1.0,,,,,,,,,0.0,training_resp,,75.27619969798252,3.7326868786476552,1.0,,left,silver,0.0,48.0,2.0,right,2021_Nov_12_1113,habits_v_MRI,5.0,40.0,1.0,5.0,30.0,15.0,5.0,15.0,30.0,30.0,60.0,RR,59.96664112031071,
16.0,1.0,resp2,stim/left_resp_img.png,"[0.5, 0]",left,stim/silver_coin.png,gold,,,,,training,,,silver,val,,,,,0.0,0.0,0.0,0.0,0.0,1.0,1.0,1.0,,,,,,,,,0.0,training_resp,,75.55958982859738,4.016086686402559,1.0,,left,silver,0.0,48.0,2.0,right,2021_Nov_12_1113,habits_v_MRI,5.0,40.0,1.0,5.0,30.0,15.0,5.0,15.0,30.0,30.0,60.0,RR,59.96664112031071,
16.0,1.0,resp2,stim/left_resp_img.png,"[0.5, 0]",left,stim/silver_coin.png,gold,,,,,training,,,silver,val,,,,,0.0,0.0,0.0,0.0,0.0,1.0,1.0,1.0,,,,,,,,,0.0,training_resp,,77.07678543077782,5.53325384366326,1.0,,left,silver,0.0,48.0,2.0,right,2021_Nov_12_1113,habits_v_MRI,5.0,40.0,1.0,5.0,30.0,15.0,5.0,15.0,30.0,30.0,60.0,RR,59.96664112031071,
16.0,1.0,resp2,stim/left_resp_img.png,"[0.5, 0]",left,stim/silver_coin.png,gold,,,,,training,,,silver,val,,,,,0.0,0.0,0.0,0.0,0.0,1.0,1.0,1.0,,,,,,,,,0.0,training_resp,,79.44424643693492,7.900623063324019,1.0,,left,silver,0.0,48.0,2.0,right,2021_Nov_12_1113,habits_v_MRI,5.0,40.0,1.0,5.0,30.0,15.0,5.0,15.0,30.0,30.0,60.0,RR,59.96664112031071,
16.0,1.0,resp2,stim/left_resp_img.png,"[0.5, 0]",left,stim/silver_coin.png,gold,,,,,training,,,silver,val,,,,,0.0,0.0,0.0,0.0,0.0,1.0,1.0,1.0,,,,,,,,,0.0,training_resp,,80.82799001899548,9.284372216789052,1.0,,left,silver,0.0,48.0,2.0,right,2021_Nov_12_1113,habits_v_MRI,5.0,40.0,1.0,5.0,30.0,15.0,5.0,15.0,30.0,30.0,60.0,RR,59.96664112031071,
16.0,1.0,resp2,stim/left_resp_img.png,"[0.5, 0]",left,stim/silver_coin.png,gold,,,,,training,,,silver,val,,,,,0.0,0.0,0.0,0.0,0.0,1.0,1.0,1.0,,,,,,,,,0.0,training_resp,,82.74535253783688,11.201674913289024,1.0,,left,silver,0.0,48.0,2.0,right,2021_Nov_12_1113,habits_v_MRI,5.0,40.0,1.0,5.0,30.0,15.0,5.0,15.0,30.0,30.0,60.0,RR,59.96664112031071,
16.0,1.0,resp2,stim/left_resp_img.png,"[0.5, 0]",left,stim/silver_coin.png,gold,,,,,training,,,silver,val,,,,,0.0,0.0,0.0,0.0,0.0,1.0,1.0,1.0,,,,,,,,,0.0,training_resp,,85.12978114630096,13.585725818760691,1.0,,left,silver,0.0,48.0,2.0,right,2021_Nov_12_1113,habits_v_MRI,5.0,40.0,1.0,5.0,30.0,15.0,5.0,15.0,30.0,30.0,60.0,RR,59.96664112031071,
16.0,1.0,resp2,stim/left_resp_img.png,"[0.5, 0]",left,stim/silver_coin.png,gold,,,,,training,,,silver,val,,,,,0.0,0.0,0.0,0.0,0.0,1.0,1.0,1.0,,,,,,,,,0.0,training_resp,,85.59608655143529,14.052468456095085,1.0,,left,silver,0.0,48.0,2.0,right,2021_Nov_12_1113,habits_v_MRI,5.0,40.0,1.0,5.0,30.0,15.0,5.0,15.0,30.0,30.0,60.0,RR,59.96664112031071,
16.0,1.0,resp2,stim/left_resp_img.png,"[0.5, 0]",left,stim/silver_coin.png,gold,,,,,training,,,silver,val,,,,,0.0,0.0,0.0,0.0,0.0,1.0,1.0,1.0,,,,,,,,,0.0,training_resp,,86.12952719372697,14.585931971669195,1.0,,left,silver,0.0,48.0,2.0,right,2021_Nov_12_1113,habits_v_MRI,5.0,40.0,1.0,5.0,30.0,15.0,5.0,15.0,30.0,30.0,60.0,RR,59.96664112031071,
16.0,1.0,resp2,stim/left_resp_img.png,"[0.5, 0]",left,stim/silver_coin.png,gold,,,,,training,,,silver,val,,,,,0.0,0.0,0.0,0.0,0.0,1.0,1.0,1.0,,,,,,,,,0.0,training_resp,,86.67968471185304,15.136102685937658,1.0,,left,silver,0.0,48.0,2.0,right,2021_Nov_12_1113,habits_v_MRI,5.0,40.0,1.0,5.0,30.0,15.0,5.0,15.0,30.0,30.0,60.0,RR,59.96664112031071,
16.0,1.0,resp2,stim/left_resp_img.png,"[0.5, 0]",left,stim/silver_coin.png,gold,,,,,training,,,silver,val,,,,,0.0,0.0,0.0,0.0,0.0,1.0,1.0,1.0,,,,,,,,,0.0,training_resp,,92.53157236147672,20.98794019035995,1.0,,left,silver,0.0,48.0,2.0,right,2021_Nov_12_1113,habits_v_MRI,5.0,40.0,1.0,5.0,30.0,15.0,5.0,15.0,30.0,30.0,60.0,RR,59.96664112031071,
16.0,1.0,resp2,stim/left_resp_img.png,"[0.5, 0]",left,stim/silver_coin.png,gold,,,,,training,,,silver,val,,,,,0.0,0.0,0.0,0.0,0.0,1.0,1.0,1.0,,,,,,,,,0.0,training_resp,,93.04834832646884,21.50475046527572,1.0,,left,silver,0.0,48.0,2.0,right,2021_Nov_12_1113,habits_v_MRI,5.0,40.0,1.0,5.0,30.0,15.0,5.0,15.0,30.0,30.0,60.0,RR,59.96664112031071,
16.0,1.0,resp2,stim/left_resp_img.png,"[0.5, 0]",left,stim/silver_coin.png,gold,,,,,training,,,silver,val,,,,,0.0,0.0,0.0,0.0,0.0,1.0,1.0,1.0,,,,,,,,,0.0,training_resp,,93.38173571508378,21.838153396034613,1.0,,left,silver,0.0,48.0,2.0,right,2021_Nov_12_1113,habits_v_MRI,5.0,40.0,1.0,5.0,30.0,15.0,5.0,15.0,30.0,30.0,60.0,RR,59.96664112031071,
16.0,1.0,resp2,stim/left_resp_img.png,"[0.5, 0]",left,stim/silver_coin.png,gold,,,,,training,,,silver,val,,,,,0.0,0.0,0.0,0.0,0.0,1.0,1.0,1.0,,,,,,,,,0.0,training_resp,,93.68187057971954,22.13828474166803,1.0,,left,silver,0.0,48.0,2.0,right,2021_Nov_12_1113,habits_v_MRI,5.0,40.0,1.0,5.0,30.0,15.0,5.0,15.0,30.0,30.0,60.0,RR,59.96664112031071,
16.0,1.0,resp2,stim/left_resp_img.png,"[0.5, 0]",left,stim/silver_coin.png,gold,,,,,training,,,silver,val,,,,,0.0,0.0,0.0,0.0,0.0,1.0,1.0,1.0,,,,,,,,,0.0,training_resp,,95.66581263160332,24.122187205124646,1.0,,left,silver,0.0,48.0,2.0,right,2021_Nov_12_1113,habits_v_MRI,5.0,40.0,1.0,5.0,30.0,15.0,5.0,15.0,30.0,30.0,60.0,RR,59.96664112031071,
16.0,1.0,resp2,stim/left_resp_img.png,"[0.5, 0]",left,stim/silver_coin.png,gold,,,,,training,,,silver,val,,,,,0.0,0.0,0.0,0.0,0.0,1.0,1.0,1.0,,,,,,,,,0.0,training_resp,,96.8828892048914,25.339264658046886,1.0,,right,,,48.0,2.0,right,2021_Nov_12_1113,habits_v_MRI,5.0,40.0,1.0,5.0,30.0,15.0,5.0,15.0,30.0,30.0,60.0,RR,59.96664112031071,
16.0,1.0,resp2,stim/left_resp_img.png,"[0.5, 0]",left,stim/silver_coin.png,gold,,,,,training,,,silver,val,,,,,0.0,0.0,0.0,0.0,0.0,1.0,1.0,1.0,,,,,,,,,0.0,training_resp,,97.28297811746596,25.739359728991985,1.0,,left,silver,0.0,48.0,2.0,right,2021_Nov_12_1113,habits_v_MRI,5.0,40.0,1.0,5.0,30.0,15.0,5.0,15.0,30.0,30.0,60.0,RR,59.96664112031071,
16.0,1.0,resp2,stim/left_resp_img.png,"[0.5, 0]",left,stim/silver_coin.png,gold,,,,,training,,,silver,val,,,,,0.0,0.0,0.0,0.0,0.0,1.0,1.0,1.0,,,,,,,,,0.0,training_resp,,97.81642785063012,26.272834974573925,1.0,,right,,,48.0,2.0,right,2021_Nov_12_1113,habits_v_MRI,5.0,40.0,1.0,5.0,30.0,15.0,5.0,15.0,30.0,30.0,60.0,RR,59.96664112031071,
16.0,1.0,resp2,stim/left_resp_img.png,"[0.5, 0]",left,stim/silver_coin.png,gold,,,,,training,,,silver,val,,,,,0.0,0.0,0.0,0.0,0.0,1.0,1.0,1.0,,,,,,,,,0.0,training_resp,,98.29992577899247,26.756301818648357,1.0,13.0,left,silver,1.0,48.0,2.0,right,2021_Nov_12_1113,habits_v_MRI,5.0,40.0,1.0,5.0,30.0,15.0,5.0,15.0,30.0,30.0,60.0,RR,59.96664112031071,
16.0,1.0,resp2,stim/left_resp_img.png,"[0.5, 0]",left,stim/silver_coin.png,gold,,,,,training,,,silver,val,,,,,0.0,0.0,0.0,0.0,0.0,1.0,1.0,1.0,,,,,,,,,0.0,training_resp,,100.16721215611324,28.623530426062644,1.0,,right,,,48.0,2.0,right,2021_Nov_12_1113,habits_v_MRI,5.0,40.0,1.0,5.0,30.0,15.0,5.0,15.0,30.0,30.0,60.0,RR,59.96664112031071,
16.0,1.0,resp2,stim/left_resp_img.png,"[0.5, 0]",left,stim/silver_coin.png,gold,,,,,training,,,silver,val,,,,,0.0,0.0,0.0,0.0,0.0,1.0,1.0,1.0,,,,,,,,,0.0,training_resp,,100.58400592114776,29.040345011744648,1.0,,left,silver,0.0,48.0,2.0,right,2021_Nov_12_1113,habits_v_MRI,5.0,40.0,1.0,5.0,30.0,15.0,5.0,15.0,30.0,30.0,60.0,RR,59.96664112031071,
16.0,1.0,resp2,stim/left_resp_img.png,"[0.5, 0]",left,stim/silver_coin.png,gold,,,,,training,,,silver,val,,,,,0.0,0.0,0.0,0.0,0.0,1.0,1.0,1.0,,,,,,,,,0.0,training_resp,,101.31759981485084,29.773905475158244,1.0,,right,,,48.0,2.0,right,2021_Nov_12_1113,habits_v_MRI,5.0,40.0,1.0,5.0,30.0,15.0,5.0,15.0,30.0,30.0,60.0,RR,59.96664112031071,
16.0,1.0,resp2,stim/left_resp_img.png,"[0.5, 0]",left,stim/silver_coin.png,gold,,,,,training,,,silver,val,,,,,0.0,0.0,0.0,0.0,0.0,1.0,1.0,1.0,,,,,,,,,0.0,training_resp,,102.03447507345118,30.49078249325976,1.0,,left,silver,0.0,48.0,2.0,right,2021_Nov_12_1113,habits_v_MRI,5.0,40.0,1.0,5.0,30.0,15.0,5.0,15.0,30.0,30.0,60.0,RR,59.96664112031071,
16.0,1.0,resp2,stim/left_resp_img.png,"[0.5, 0]",left,stim/silver_coin.png,gold,,,,,training,,,silver,val,,,,,0.0,0.0,0.0,0.0,0.0,1.0,1.0,1.0,,,,,,,,,0.0,training_resp,,103.18476771982388,31.64109361427836,1.0,,left,silver,0.0,48.0,2.0,right,2021_Nov_12_1113,habits_v_MRI,5.0,40.0,1.0,5.0,30.0,15.0,5.0,15.0,30.0,30.0,60.0,RR,59.96664112031071,
16.0,1.0,resp2,stim/left_resp_img.png,"[0.5, 0]",left,stim/silver_coin.png,gold,,,,,training,,,silver,val,,,,,0.0,0.0,0.0,0.0,0.0,1.0,1.0,1.0,,,,,,,,,0.0,training_resp,,106.45247584581377,34.90877798711881,1.0,,left,silver,0.0,48.0,2.0,right,2021_Nov_12_1113,habits_v_MRI,5.0,40.0,1.0,5.0,30.0,15.0,5.0,15.0,30.0,30.0,60.0,RR,59.96664112031071,
16.0,1.0,resp2,stim/left_resp_img.png,"[0.5, 0]",left,stim/silver_coin.png,gold,,,,,training,,,silver,val,,,,,0.0,0.0,0.0,0.0,0.0,1.0,1.0,1.0,,,,,,,,,0.0,training_resp,,107.76953667146154,36.22580978134647,1.0,,left,silver,0.0,48.0,2.0,right,2021_Nov_12_1113,habits_v_MRI,5.0,40.0,1.0,5.0,30.0,15.0,5.0,15.0,30.0,30.0,60.0,RR,59.96664112031071,
16.0,1.0,resp2,stim/left_resp_img.png,"[0.5, 0]",left,stim/silver_coin.png,gold,,,,,training,,,silver,val,,,,,0.0,0.0,0.0,0.0,0.0,1.0,1.0,1.0,,,,,,,,,0.0,training_resp,,109.0866010163445,37.54286092985421,1.0,,left,silver,0.0,48.0,2.0,right,2021_Nov_12_1113,habits_v_MRI,5.0,40.0,1.0,5.0,30.0,15.0,5.0,15.0,30.0,30.0,60.0,RR,59.96664112031071,
16.0,1.0,resp2,stim/left_resp_img.png,"[0.5, 0]",left,stim/silver_coin.png,gold,,,,,training,,,silver,val,,,,,0.0,0.0,0.0,0.0,0.0,1.0,1.0,1.0,,,,,,,,,0.0,training_resp,,111.52069785888308,39.977020234335214,1.0,,left,silver,0.0,48.0,2.0,right,2021_Nov_12_1113,habits_v_MRI,5.0,40.0,1.0,5.0,30.0,15.0,5.0,15.0,30.0,30.0,60.0,RR,59.96664112031071,
16.0,1.0,resp2,stim/left_resp_img.png,"[0.5, 0]",left,stim/silver_coin.png,gold,,,,,training,,,silver,val,,,,,0.0,0.0,0.0,0.0,0.0,1.0,1.0,1.0,,,,,,,,,0.0,training_resp,,112.87004818348214,41.32687787734904,1.0,,left,silver,0.0,48.0,2.0,right,2021_Nov_12_1113,habits_v_MRI,5.0,40.0,1.0,5.0,30.0,15.0,5.0,15.0,30.0,30.0,60.0,RR,59.96664112031071,
16.0,1.0,resp2,stim/left_resp_img.png,"[0.5, 0]",left,stim/silver_coin.png,gold,,,,,training,,,silver,val,,,,,0.0,0.0,0.0,0.0,0.0,1.0,1.0,1.0,,,,,,,,,0.0,training_resp,,113.1707185183186,41.62732974253595,1.0,,left,silver,0.0,48.0,2.0,right,2021_Nov_12_1113,habits_v_MRI,5.0,40.0,1.0,5.0,30.0,15.0,5.0,15.0,30.0,30.0,60.0,RR,59.96664112031071,
16.0,1.0,resp2,stim/left_resp_img.png,"[0.5, 0]",left,stim/silver_coin.png,gold,,,,,training,,,silver,val,,,,,0.0,0.0,0.0,0.0,0.0,1.0,1.0,1.0,,,,,,,,,0.0,training_resp,,115.0714492034167,43.52802054607309,1.0,,left,silver,0.0,48.0,2.0,right,2021_Nov_12_1113,habits_v_MRI,5.0,40.0,1.0,5.0,30.0,15.0,5.0,15.0,30.0,30.0,60.0,RR,59.96664112031071,
16.0,1.0,resp2,stim/left_resp_img.png,"[0.5, 0]",left,stim/silver_coin.png,gold,,,,,training,,,silver,val,,,,,0.0,0.0,0.0,0.0,0.0,1.0,1.0,1.0,,,,,,,,,0.0,training_resp,,117.088799493853,45.54533476708457,1.0,,left,silver,0.0,48.0,2.0,right,2021_Nov_12_1113,habits_v_MRI,5.0,40.0,1.0,5.0,30.0,15.0,5.0,15.0,30.0,30.0,60.0,RR,59.96664112031071,
16.0,1.0,resp2,stim/left_resp_img.png,"[0.5, 0]",left,stim/silver_coin.png,gold,,,,,training,,,silver,val,,,,,0.0,0.0,0.0,0.0,0.0,1.0,1.0,1.0,,,,,,,,,0.0,training_resp,,117.43876036000438,45.89536483958364,1.0,,left,silver,0.0,48.0,2.0,right,2021_Nov_12_1113,habits_v_MRI,5.0,40.0,1.0,5.0,30.0,15.0,5.0,15.0,30.0,30.0,60.0,RR,59.96664112031071,
16.0,1.0,resp2,stim/left_resp_img.png,"[0.5, 0]",left,stim/silver_coin.png,gold,,,,,training,,,silver,val,,,,,0.0,0.0,0.0,0.0,0.0,1.0,1.0,1.0,,,,,,,,,0.0,training_resp,,120.3902422429528,48.84653177461587,1.0,11.0,left,silver,1.0,48.0,2.0,right,2021_Nov_12_1113,habits_v_MRI,5.0,40.0,1.0,5.0,30.0,15.0,5.0,15.0,30.0,30.0,60.0,RR,59.96664112031071,
16.0,1.0,resp2,stim/left_resp_img.png,"[0.5, 0]",left,stim/silver_coin.png,gold,,,,,training,,,silver,val,,,,,0.0,0.0,0.0,0.0,0.0,1.0,1.0,1.0,,,,,,,,,0.0,training_resp,,122.19054939062336,50.64684478729032,1.0,,left,silver,0.0,48.0,2.0,right,2021_Nov_12_1113,habits_v_MRI,5.0,40.0,1.0,5.0,30.0,15.0,5.0,15.0,30.0,30.0,60.0,RR,59.96664112031071,
16.0,1.0,resp2,stim/left_resp_img.png,"[0.5, 0]",left,stim/silver_coin.png,gold,,,,,training,,,silver,val,,,,,0.0,0.0,0.0,0.0,0.0,1.0,1.0,1.0,,,,,,,,,0.0,training_resp,,122.62430929159746,51.08033988578245,1.0,,left,silver,0.0,48.0,2.0,right,2021_Nov_12_1113,habits_v_MRI,5.0,40.0,1.0,5.0,30.0,15.0,5.0,15.0,30.0,30.0,60.0,RR,59.96664112031071,
16.0,1.0,resp2,stim/left_resp_img.png,"[0.5, 0]",left,stim/silver_coin.png,gold,,,,,training,,,silver,val,,,,,0.0,0.0,0.0,0.0,0.0,1.0,1.0,1.0,,,,,,,,,0.0,training_resp,,122.95743627636692,51.41377302096225,1.0,,left,silver,0.0,48.0,2.0,right,2021_Nov_12_1113,habits_v_MRI,5.0,40.0,1.0,5.0,30.0,15.0,5.0,15.0,30.0,30.0,60.0,RR,59.96664112031071,
16.0,1.0,resp2,stim/left_resp_img.png,"[0.5, 0]",left,stim/silver_coin.png,gold,,,,,training,,,silver,val,,,,,0.0,0.0,0.0,0.0,0.0,1.0,1.0,1.0,,,,,,,,,0.0,training_resp,,123.22435028781184,51.68045771261677,1.0,,left,silver,0.0,48.0,2.0,right,2021_Nov_12_1113,habits_v_MRI,5.0,40.0,1.0,5.0,30.0,15.0,5.0,15.0,30.0,30.0,60.0,RR,59.96664112031071,
16.0,1.0,resp2,stim/left_resp_img.png,"[0.5, 0]",left,stim/silver_coin.png,gold,,,,,training,,,silver,val,,,,,0.0,0.0,0.0,0.0,0.0,1.0,1.0,1.0,,,,,,,,,0.0,training_resp,,124.79123377194628,53.24759544245899,1.0,,left,silver,0.0,48.0,2.0,right,2021_Nov_12_1113,habits_v_MRI,5.0,40.0,1.0,5.0,30.0,15.0,5.0,15.0,30.0,30.0,60.0,RR,59.96664112031071,
16.0,1.0,resp2,stim/left_resp_img.png,"[0.5, 0]",left,stim/silver_coin.png,gold,,,,,training,,,silver,val,,,,,0.0,0.0,0.0,0.0,0.0,1.0,1.0,1.0,,,,,,,,,0.0,training_resp,,125.70814380981028,54.1645295266062,1.0,,left,silver,0.0,48.0,2.0,right,2021_Nov_12_1113,habits_v_MRI,5.0,40.0,1.0,5.0,30.0,15.0,5.0,15.0,30.0,30.0,60.0,RR,59.96664112031071,
16.0,1.0,resp2,stim/left_resp_img.png,"[0.5, 0]",left,stim/silver_coin.png,gold,,,,,training,,,silver,val,,,,,0.0,0.0,0.0,0.0,0.0,1.0,1.0,1.0,,,,,,,,,0.0,training_resp,,125.97489477531052,54.43127726647072,1.0,,left,silver,0.0,48.0,2.0,right,2021_Nov_12_1113,habits_v_MRI,5.0,40.0,1.0,5.0,30.0,15.0,5.0,15.0,30.0,30.0,60.0,RR,59.96664112031071,
16.0,1.0,resp2,stim/left_resp_img.png,"[0.5, 0]",left,stim/silver_coin.png,gold,,,,,training,,,silver,val,,,,,0.0,0.0,0.0,0.0,0.0,1.0,1.0,1.0,,,,,,,,,0.0,training_resp,,126.17495917249472,54.63134078402072,1.0,,left,silver,0.0,48.0,2.0,right,2021_Nov_12_1113,habits_v_MRI,5.0,40.0,1.0,5.0,30.0,15.0,5.0,15.0,30.0,30.0,60.0,RR,59.96664112031071,
16.0,1.0,resp2,stim/left_resp_img.png,"[0.5, 0]",left,stim/silver_coin.png,gold,,,,,training,,,silver,val,,,,,0.0,0.0,0.0,0.0,0.0,1.0,1.0,1.0,,,,,,,,,0.0,training_resp,,127.4420104236342,55.8983861701563,1.0,,left,silver,0.0,48.0,2.0,right,2021_Nov_12_1113,habits_v_MRI,5.0,40.0,1.0,5.0,30.0,15.0,5.0,15.0,30.0,30.0,60.0,RR,59.96664112031071,
16.0,1.0,resp2,stim/left_resp_img.png,"[0.5, 0]",left,stim/silver_coin.png,gold,,,,,training,,,silver,val,,,,,0.0,0.0,0.0,0.0,0.0,1.0,1.0,1.0,,,,,,,,,0.0,training_resp,,128.8425151614938,57.29881612979807,1.0,,left,silver,0.0,48.0,2.0,right,2021_Nov_12_1113,habits_v_MRI,5.0,40.0,1.0,5.0,30.0,15.0,5.0,15.0,30.0,30.0,60.0,RR,59.96664112031071,
16.0,1.0,resp2,stim/left_resp_img.png,"[0.5, 0]",left,stim/silver_coin.png,gold,,,,,training,,,silver,val,,,,,0.0,0.0,0.0,0.0,0.0,1.0,1.0,1.0,,,,,,,,,0.0,training_resp,,129.67605753149837,58.13242096174508,1.0,17.0,left,silver,1.0,48.0,2.0,right,2021_Nov_12_1113,habits_v_MRI,5.0,40.0,1.0,5.0,30.0,15.0,5.0,15.0,30.0,30.0,60.0,RR,59.96664112031071,
16.0,1.0,resp2,stim/left_resp_img.png,"[0.5, 0]",left,stim/silver_coin.png,gold,,,,,training,,,silver,val,,,,,0.0,0.0,0.0,0.0,0.0,1.0,1.0,1.0,,,,,,,,,0.0,ITI_start,26.666666666666668,131.22620214661583,59.68294767849147,,,,,,48.0,2.0,right,2021_Nov_12_1113,habits_v_MRI,5.0,40.0,1.0,5.0,30.0,15.0,5.0,15.0,30.0,30.0,60.0,RR,59.96664112031071,
16.0,0.0,resp1,stim/right_resp_img.png,"[-0.5, 0]",right,stim/gold_coin.png,gold,,,,,training,,,gold,deval,,,,,0.0,0.0,0.0,0.0,1.0,0.0,2.0,0.0,,,,,,,,,0.0,training_period_start,52.5,157.92333831940778,0.0,2.0,14.0,,,,48.0,2.0,right,2021_Nov_12_1113,habits_v_MRI,5.0,40.0,1.0,5.0,30.0,15.0,5.0,15.0,30.0,30.0,60.0,RR,59.96664112031071,
16.0,0.0,resp1,stim/right_resp_img.png,"[-0.5, 0]",right,stim/gold_coin.png,gold,,,,,training,,,gold,deval,,,,,0.0,0.0,0.0,0.0,1.0,0.0,2.0,0.0,,,,,,,,,0.0,training_resp,,159.2683095766697,1.3652446405030787,2.0,,right,gold,0.0,48.0,2.0,right,2021_Nov_12_1113,habits_v_MRI,5.0,40.0,1.0,5.0,30.0,15.0,5.0,15.0,30.0,30.0,60.0,RR,59.96664112031071,
16.0,0.0,resp1,stim/right_resp_img.png,"[-0.5, 0]",right,stim/gold_coin.png,gold,,,,,training,,,gold,deval,,,,,0.0,0.0,0.0,0.0,1.0,0.0,2.0,0.0,,,,,,,,,0.0,training_resp,,159.6350723602809,1.732000385876745,2.0,,right,gold,0.0,48.0,2.0,right,2021_Nov_12_1113,habits_v_MRI,5.0,40.0,1.0,5.0,30.0,15.0,5.0,15.0,30.0,30.0,60.0,RR,59.96664112031071,
16.0,0.0,resp1,stim/right_resp_img.png,"[-0.5, 0]",right,stim/gold_coin.png,gold,,,,,training,,,gold,deval,,,,,0.0,0.0,0.0,0.0,1.0,0.0,2.0,0.0,,,,,,,,,0.0,training_resp,,161.10216132295318,3.19909169478342,2.0,,right,gold,0.0,48.0,2.0,right,2021_Nov_12_1113,habits_v_MRI,5.0,40.0,1.0,5.0,30.0,15.0,5.0,15.0,30.0,30.0,60.0,RR,59.96664112031071,
16.0,0.0,resp1,stim/right_resp_img.png,"[-0.5, 0]",right,stim/gold_coin.png,gold,,,,,training,,,gold,deval,,,,,0.0,0.0,0.0,0.0,1.0,0.0,2.0,0.0,,,,,,,,,0.0,training_resp,,161.80241765081882,3.8993154719937593,2.0,,right,gold,0.0,48.0,2.0,right,2021_Nov_12_1113,habits_v_MRI,5.0,40.0,1.0,5.0,30.0,15.0,5.0,15.0,30.0,30.0,60.0,RR,59.96664112031071,
16.0,0.0,resp1,stim/right_resp_img.png,"[-0.5, 0]",right,stim/gold_coin.png,gold,,,,,training,,,gold,deval,,,,,0.0,0.0,0.0,0.0,1.0,0.0,2.0,0.0,,,,,,,,,0.0,training_resp,,162.0524845845066,4.149416422471404,2.0,,right,gold,0.0,48.0,2.0,right,2021_Nov_12_1113,habits_v_MRI,5.0,40.0,1.0,5.0,30.0,15.0,5.0,15.0,30.0,30.0,60.0,RR,59.96664112031071,
16.0,0.0,resp1,stim/right_resp_img.png,"[-0.5, 0]",right,stim/gold_coin.png,gold,,,,,training,,,gold,deval,,,,,0.0,0.0,0.0,0.0,1.0,0.0,2.0,0.0,,,,,,,,,0.0,training_resp,,162.3192405353766,4.416209909133613,2.0,,right,gold,0.0,48.0,2.0,right,2021_Nov_12_1113,habits_v_MRI,5.0,40.0,1.0,5.0,30.0,15.0,5.0,15.0,30.0,30.0,60.0,RR,59.96664112031071,
16.0,0.0,resp1,stim/right_resp_img.png,"[-0.5, 0]",right,stim/gold_coin.png,gold,,,,,training,,,gold,deval,,,,,0.0,0.0,0.0,0.0,1.0,0.0,2.0,0.0,,,,,,,,,0.0,training_resp,,163.13668595533818,5.233176162466407,2.0,,right,gold,0.0,48.0,2.0,right,2021_Nov_12_1113,habits_v_MRI,5.0,40.0,1.0,5.0,30.0,15.0,5.0,15.0,30.0,30.0,60.0,RR,59.96664112031071,
16.0,0.0,resp1,stim/right_resp_img.png,"[-0.5, 0]",right,stim/gold_coin.png,gold,,,,,training,,,gold,deval,,,,,0.0,0.0,0.0,0.0,1.0,0.0,2.0,0.0,,,,,,,,,0.0,training_resp,,163.65309946634807,5.749898756388575,2.0,,right,gold,0.0,48.0,2.0,right,2021_Nov_12_1113,habits_v_MRI,5.0,40.0,1.0,5.0,30.0,15.0,5.0,15.0,30.0,30.0,60.0,RR,59.96664112031071,
16.0,0.0,resp1,stim/right_resp_img.png,"[-0.5, 0]",right,stim/gold_coin.png,gold,,,,,training,,,gold,deval,,,,,0.0,0.0,0.0,0.0,1.0,0.0,2.0,0.0,,,,,,,,,0.0,training_resp,,165.95457417936996,8.051316872704774,2.0,,right,gold,0.0,48.0,2.0,right,2021_Nov_12_1113,habits_v_MRI,5.0,40.0,1.0,5.0,30.0,15.0,5.0,15.0,30.0,30.0,60.0,RR,59.96664112031071,
16.0,0.0,resp1,stim/right_resp_img.png,"[-0.5, 0]",right,stim/gold_coin.png,gold,,,,,training,,,gold,deval,,,,,0.0,0.0,0.0,0.0,1.0,0.0,2.0,0.0,,,,,,,,,0.0,training_resp,,167.40423631411977,9.500993376364931,2.0,,right,gold,0.0,48.0,2.0,right,2021_Nov_12_1113,habits_v_MRI,5.0,40.0,1.0,5.0,30.0,15.0,5.0,15.0,30.0,30.0,60.0,RR,59.96664112031071,
16.0,0.0,resp1,stim/right_resp_img.png,"[-0.5, 0]",right,stim/gold_coin.png,gold,,,,,training,,,gold,deval,,,,,0.0,0.0,0.0,0.0,1.0,0.0,2.0,0.0,,,,,,,,,0.0,training_resp,,168.55461282934994,10.65136285382323,2.0,,right,gold,0.0,48.0,2.0,right,2021_Nov_12_1113,habits_v_MRI,5.0,40.0,1.0,5.0,30.0,15.0,5.0,15.0,30.0,30.0,60.0,RR,59.96664112031071,
16.0,0.0,resp1,stim/right_resp_img.png,"[-0.5, 0]",right,stim/gold_coin.png,gold,,,,,training,,,gold,deval,,,,,0.0,0.0,0.0,0.0,1.0,0.0,2.0,0.0,,,,,,,,,0.0,training_resp,,168.78781948960386,10.884635787922887,2.0,,right,gold,0.0,48.0,2.0,right,2021_Nov_12_1113,habits_v_MRI,5.0,40.0,1.0,5.0,30.0,15.0,5.0,15.0,30.0,30.0,60.0,RR,59.96664112031071,
16.0,0.0,resp1,stim/right_resp_img.png,"[-0.5, 0]",right,stim/gold_coin.png,gold,,,,,training,,,gold,deval,,,,,0.0,0.0,0.0,0.0,1.0,0.0,2.0,0.0,,,,,,,,,0.0,training_resp,,169.00465237395838,11.101443159626797,2.0,,right,gold,0.0,48.0,2.0,right,2021_Nov_12_1113,habits_v_MRI,5.0,40.0,1.0,5.0,30.0,15.0,5.0,15.0,30.0,30.0,60.0,RR,59.96664112031071,
16.0,0.0,resp1,stim/right_resp_img.png,"[-0.5, 0]",right,stim/gold_coin.png,gold,,,,,training,,,gold,deval,,,,,0.0,0.0,0.0,0.0,1.0,0.0,2.0,0.0,,,,,,,,,0.0,training_resp,,170.02164519554935,12.118423371575773,2.0,10.0,right,gold,1.0,48.0,2.0,right,2021_Nov_12_1113,habits_v_MRI,5.0,40.0,1.0,5.0,30.0,15.0,5.0,15.0,30.0,30.0,60.0,RR,59.96664112031071,
16.0,0.0,resp1,stim/right_resp_img.png,"[-0.5, 0]",right,stim/gold_coin.png,gold,,,,,training,,,gold,deval,,,,,0.0,0.0,0.0,0.0,1.0,0.0,2.0,0.0,,,,,,,,,0.0,training_resp,,171.37244885531254,13.468795371009035,2.0,,right,gold,0.0,48.0,2.0,right,2021_Nov_12_1113,habits_v_MRI,5.0,40.0,1.0,5.0,30.0,15.0,5.0,15.0,30.0,30.0,60.0,RR,59.96664112031071,
16.0,0.0,resp1,stim/right_resp_img.png,"[-0.5, 0]",right,stim/gold_coin.png,gold,,,,,training,,,gold,deval,,,,,0.0,0.0,0.0,0.0,1.0,0.0,2.0,0.0,,,,,,,,,0.0,training_resp,,172.57239067507908,14.669184686616063,2.0,,right,gold,0.0,48.0,2.0,right,2021_Nov_12_1113,habits_v_MRI,5.0,40.0,1.0,5.0,30.0,15.0,5.0,15.0,30.0,30.0,60.0,RR,59.96664112031071,
16.0,0.0,resp1,stim/right_resp_img.png,"[-0.5, 0]",right,stim/gold_coin.png,gold,,,,,training,,,gold,deval,,,,,0.0,0.0,0.0,0.0,1.0,0.0,2.0,0.0,,,,,,,,,0.0,training_resp,,173.93935403972864,16.03617972205393,2.0,,right,gold,0.0,48.0,2.0,right,2021_Nov_12_1113,habits_v_MRI,5.0,40.0,1.0,5.0,30.0,15.0,5.0,15.0,30.0,30.0,60.0,RR,59.96664112031071,
16.0,0.0,resp1,stim/right_resp_img.png,"[-0.5, 0]",right,stim/gold_coin.png,gold,,,,,training,,,gold,deval,,,,,0.0,0.0,0.0,0.0,1.0,0.0,2.0,0.0,,,,,,,,,0.0,training_resp,,175.10639288672246,17.203224433818832,2.0,,right,gold,0.0,48.0,2.0,right,2021_Nov_12_1113,habits_v_MRI,5.0,40.0,1.0,5.0,30.0,15.0,5.0,15.0,30.0,30.0,60.0,RR,59.96664112031071,
16.0,0.0,resp1,stim/right_resp_img.png,"[-0.5, 0]",right,stim/gold_coin.png,gold,,,,,training,,,gold,deval,,,,,0.0,0.0,0.0,0.0,1.0,0.0,2.0,0.0,,,,,,,,,0.0,training_resp,,175.23967746272683,17.336543906480074,2.0,,right,gold,0.0,48.0,2.0,right,2021_Nov_12_1113,habits_v_MRI,5.0,40.0,1.0,5.0,30.0,15.0,5.0,15.0,30.0,30.0,60.0,RR,59.96664112031071,
16.0,0.0,resp1,stim/right_resp_img.png,"[-0.5, 0]",right,stim/gold_coin.png,gold,,,,,training,,,gold,deval,,,,,0.0,0.0,0.0,0.0,1.0,0.0,2.0,0.0,,,,,,,,,0.0,training_resp,,176.42343992972746,18.520266198553145,2.0,,left,,,48.0,2.0,right,2021_Nov_12_1113,habits_v_MRI,5.0,40.0,1.0,5.0,30.0,15.0,5.0,15.0,30.0,30.0,60.0,RR,59.96664112031071,
16.0,0.0,resp1,stim/right_resp_img.png,"[-0.5, 0]",right,stim/gold_coin.png,gold,,,,,training,,,gold,deval,,,,,0.0,0.0,0.0,0.0,1.0,0.0,2.0,0.0,,,,,,,,,0.0,training_resp,,176.45688746357337,18.553642766317356,2.0,,left,,,48.0,2.0,right,2021_Nov_12_1113,habits_v_MRI,5.0,40.0,1.0,5.0,30.0,15.0,5.0,15.0,30.0,30.0,60.0,RR,59.96664112031071,
16.0,0.0,resp1,stim/right_resp_img.png,"[-0.5, 0]",right,stim/gold_coin.png,gold,,,,,training,,,gold,deval,,,,,0.0,0.0,0.0,0.0,1.0,0.0,2.0,0.0,,,,,,,,,0.0,training_resp,,176.82352796266787,18.920374172274023,2.0,,left,,,48.0,2.0,right,2021_Nov_12_1113,habits_v_MRI,5.0,40.0,1.0,5.0,30.0,15.0,5.0,15.0,30.0,30.0,60.0,RR,59.96664112031071,
16.0,0.0,resp1,stim/right_resp_img.png,"[-0.5, 0]",right,stim/gold_coin.png,gold,,,,,training,,,gold,deval,,,,,0.0,0.0,0.0,0.0,1.0,0.0,2.0,0.0,,,,,,,,,0.0,training_resp,,177.19039543555118,19.28721085423604,2.0,,right,gold,0.0,48.0,2.0,right,2021_Nov_12_1113,habits_v_MRI,5.0,40.0,1.0,5.0,30.0,15.0,5.0,15.0,30.0,30.0,60.0,RR,59.96664112031071,
16.0,0.0,resp1,stim/right_resp_img.png,"[-0.5, 0]",right,stim/gold_coin.png,gold,,,,,training,,,gold,deval,,,,,0.0,0.0,0.0,0.0,1.0,0.0,2.0,0.0,,,,,,,,,0.0,training_resp,,179.3243770613335,21.42116491449997,2.0,,right,gold,0.0,48.0,2.0,right,2021_Nov_12_1113,habits_v_MRI,5.0,40.0,1.0,5.0,30.0,15.0,5.0,15.0,30.0,30.0,60.0,RR,59.96664112031071,
16.0,0.0,resp1,stim/right_resp_img.png,"[-0.5, 0]",right,stim/gold_coin.png,gold,,,,,training,,,gold,deval,,,,,0.0,0.0,0.0,0.0,1.0,0.0,2.0,0.0,,,,,,,,,0.0,training_resp,,179.691334561212,21.78793942788616,2.0,,right,gold,0.0,48.0,2.0,right,2021_Nov_12_1113,habits_v_MRI,5.0,40.0,1.0,5.0,30.0,15.0,5.0,15.0,30.0,30.0,60.0,RR,59.96664112031071,
16.0,0.0,resp1,stim/right_resp_img.png,"[-0.5, 0]",right,stim/gold_coin.png,gold,,,,,training,,,gold,deval,,,,,0.0,0.0,0.0,0.0,1.0,0.0,2.0,0.0,,,,,,,,,0.0,training_resp,,180.6414235178381,22.73825389216654,2.0,,right,gold,0.0,48.0,2.0,right,2021_Nov_12_1113,habits_v_MRI,5.0,40.0,1.0,5.0,30.0,15.0,5.0,15.0,30.0,30.0,60.0,RR,59.96664112031071,
16.0,0.0,resp1,stim/right_resp_img.png,"[-0.5, 0]",right,stim/gold_coin.png,gold,,,,,training,,,gold,deval,,,,,0.0,0.0,0.0,0.0,1.0,0.0,2.0,0.0,,,,,,,,,0.0,training_resp,,181.0582078990992,23.155054988339543,2.0,18.0,right,gold,1.0,48.0,2.0,right,2021_Nov_12_1113,habits_v_MRI,5.0,40.0,1.0,5.0,30.0,15.0,5.0,15.0,30.0,30.0,60.0,RR,59.96664112031071,
16.0,0.0,resp1,stim/right_resp_img.png,"[-0.5, 0]",right,stim/gold_coin.png,gold,,,,,training,,,gold,deval,,,,,0.0,0.0,0.0,0.0,1.0,0.0,2.0,0.0,,,,,,,,,0.0,training_resp,,182.77539898524992,24.872207952430472,2.0,,right,gold,0.0,48.0,2.0,right,2021_Nov_12_1113,habits_v_MRI,5.0,40.0,1.0,5.0,30.0,15.0,5.0,15.0,30.0,30.0,60.0,RR,59.96664112031071,
16.0,0.0,resp1,stim/right_resp_img.png,"[-0.5, 0]",right,stim/gold_coin.png,gold,,,,,training,,,gold,deval,,,,,0.0,0.0,0.0,0.0,1.0,0.0,2.0,0.0,,,,,,,,,0.0,training_resp,,183.24238179251552,25.33903651149012,2.0,,right,gold,0.0,48.0,2.0,right,2021_Nov_12_1113,habits_v_MRI,5.0,40.0,1.0,5.0,30.0,15.0,5.0,15.0,30.0,30.0,60.0,RR,59.96664112031071,
16.0,0.0,resp1,stim/right_resp_img.png,"[-0.5, 0]",right,stim/gold_coin.png,gold,,,,,training,,,gold,deval,,,,,0.0,0.0,0.0,0.0,1.0,0.0,2.0,0.0,,,,,,,,,0.0,training_resp,,184.19249743479304,26.28930376260541,2.0,,right,gold,0.0,48.0,2.0,right,2021_Nov_12_1113,habits_v_MRI,5.0,40.0,1.0,5.0,30.0,15.0,5.0,15.0,30.0,30.0,60.0,RR,59.96664112031071,
16.0,0.0,resp1,stim/right_resp_img.png,"[-0.5, 0]",right,stim/gold_coin.png,gold,,,,,training,,,gold,deval,,,,,0.0,0.0,0.0,0.0,1.0,0.0,2.0,0.0,,,,,,,,,0.0,training_resp,,184.4925795146264,26.589435694739223,2.0,,right,gold,0.0,48.0,2.0,right,2021_Nov_12_1113,habits_v_MRI,5.0,40.0,1.0,5.0,30.0,15.0,5.0,15.0,30.0,30.0,60.0,RR,59.96664112031071,
16.0,0.0,resp1,stim/right_resp_img.png,"[-0.5, 0]",right,stim/gold_coin.png,gold,,,,,training,,,gold,deval,,,,,0.0,0.0,0.0,0.0,1.0,0.0,2.0,0.0,,,,,,,,,0.0,training_resp,,185.5431770507712,27.639661686029285,2.0,,right,gold,0.0,48.0,2.0,right,2021_Nov_12_1113,habits_v_MRI,5.0,40.0,1.0,5.0,30.0,15.0,5.0,15.0,30.0,30.0,60.0,RR,59.96664112031071,
16.0,0.0,resp1,stim/right_resp_img.png,"[-0.5, 0]",right,stim/gold_coin.png,gold,,,,,training,,,gold,deval,,,,,0.0,0.0,0.0,0.0,1.0,0.0,2.0,0.0,,,,,,,,,0.0,training_resp,,186.70987250469625,28.806699946522716,2.0,,right,gold,0.0,48.0,2.0,right,2021_Nov_12_1113,habits_v_MRI,5.0,40.0,1.0,5.0,30.0,15.0,5.0,15.0,30.0,30.0,60.0,RR,59.96664112031071,
16.0,0.0,resp1,stim/right_resp_img.png,"[-0.5, 0]",right,stim/gold_coin.png,gold,,,,,training,,,gold,deval,,,,,0.0,0.0,0.0,0.0,1.0,0.0,2.0,0.0,,,,,,,,,0.0,training_resp,,187.1267460330855,29.22359576169401,2.0,,right,gold,0.0,48.0,2.0,right,2021_Nov_12_1113,habits_v_MRI,5.0,40.0,1.0,5.0,30.0,15.0,5.0,15.0,30.0,30.0,60.0,RR,59.96664112031071,
16.0,0.0,resp1,stim/right_resp_img.png,"[-0.5, 0]",right,stim/gold_coin.png,gold,,,,,training,,,gold,deval,,,,,0.0,0.0,0.0,0.0,1.0,0.0,2.0,0.0,,,,,,,,,0.0,training_resp,,187.39343013823964,29.490289543988183,2.0,,right,gold,0.0,48.0,2.0,right,2021_Nov_12_1113,habits_v_MRI,5.0,40.0,1.0,5.0,30.0,15.0,5.0,15.0,30.0,30.0,60.0,RR,59.96664112031071,
16.0,0.0,resp1,stim/right_resp_img.png,"[-0.5, 0]",right,stim/gold_coin.png,gold,,,,,training,,,gold,deval,,,,,0.0,0.0,0.0,0.0,1.0,0.0,2.0,0.0,,,,,,,,,0.0,training_resp,,188.4270700423513,30.523888686671853,2.0,,right,gold,0.0,48.0,2.0,right,2021_Nov_12_1113,habits_v_MRI,5.0,40.0,1.0,5.0,30.0,15.0,5.0,15.0,30.0,30.0,60.0,RR,59.96664112031071,
16.0,0.0,resp1,stim/right_resp_img.png,"[-0.5, 0]",right,stim/gold_coin.png,gold,,,,,training,,,gold,deval,,,,,0.0,0.0,0.0,0.0,1.0,0.0,2.0,0.0,,,,,,,,,0.0,training_resp,,189.52740589901805,31.62422424997203,2.0,,right,gold,0.0,48.0,2.0,right,2021_Nov_12_1113,habits_v_MRI,5.0,40.0,1.0,5.0,30.0,15.0,5.0,15.0,30.0,30.0,60.0,RR,59.96664112031071,
16.0,0.0,resp1,stim/right_resp_img.png,"[-0.5, 0]",right,stim/gold_coin.png,gold,,,,,training,,,gold,deval,,,,,0.0,0.0,0.0,0.0,1.0,0.0,2.0,0.0,,,,,,,,,0.0,training_resp,,191.87815618771128,33.97496398189105,2.0,,right,gold,0.0,48.0,2.0,right,2021_Nov_12_1113,habits_v_MRI,5.0,40.0,1.0,5.0,30.0,15.0,5.0,15.0,30.0,30.0,60.0,RR,59.96664112031071,
16.0,0.0,resp1,stim/right_resp_img.png,"[-0.5, 0]",right,stim/gold_coin.png,gold,,,,,training,,,gold,deval,,,,,0.0,0.0,0.0,0.0,1.0,0.0,2.0,0.0,,,,,,,,,0.0,training_resp,,192.928504756419,35.025264751398936,2.0,,right,gold,0.0,48.0,2.0,right,2021_Nov_12_1113,habits_v_MRI,5.0,40.0,1.0,5.0,30.0,15.0,5.0,15.0,30.0,30.0,60.0,RR,59.96664112031071,
16.0,0.0,resp1,stim/right_resp_img.png,"[-0.5, 0]",right,stim/gold_coin.png,gold,,,,,training,,,gold,deval,,,,,0.0,0.0,0.0,0.0,1.0,0.0,2.0,0.0,,,,,,,,,0.0,training_resp,,193.0618567795027,35.15867366432212,2.0,,right,gold,0.0,48.0,2.0,right,2021_Nov_12_1113,habits_v_MRI,5.0,40.0,1.0,5.0,30.0,15.0,5.0,15.0,30.0,30.0,60.0,RR,59.96664112031071,
16.0,0.0,resp1,stim/right_resp_img.png,"[-0.5, 0]",right,stim/gold_coin.png,gold,,,,,training,,,gold,deval,,,,,0.0,0.0,0.0,0.0,1.0,0.0,2.0,0.0,,,,,,,,,0.0,training_resp,,193.42865709867328,35.52546371985227,2.0,,left,,,48.0,2.0,right,2021_Nov_12_1113,habits_v_MRI,5.0,40.0,1.0,5.0,30.0,15.0,5.0,15.0,30.0,30.0,60.0,RR,59.96664112031071,
16.0,0.0,resp1,stim/right_resp_img.png,"[-0.5, 0]",right,stim/gold_coin.png,gold,,,,,training,,,gold,deval,,,,,0.0,0.0,0.0,0.0,1.0,0.0,2.0,0.0,,,,,,,,,0.0,training_resp,,193.8622612853069,35.958874069852754,2.0,,right,gold,0.0,48.0,2.0,right,2021_Nov_12_1113,habits_v_MRI,5.0,40.0,1.0,5.0,30.0,15.0,5.0,15.0,30.0,30.0,60.0,RR,59.96664112031071,
16.0,0.0,resp1,stim/right_resp_img.png,"[-0.5, 0]",right,stim/gold_coin.png,gold,,,,,training,,,gold,deval,,,,,0.0,0.0,0.0,0.0,1.0,0.0,2.0,0.0,,,,,,,,,0.0,training_resp,,194.078804734163,36.17558349692263,2.0,,left,,,48.0,2.0,right,2021_Nov_12_1113,habits_v_MRI,5.0,40.0,1.0,5.0,30.0,15.0,5.0,15.0,30.0,30.0,60.0,RR,59.96664112031071,
16.0,0.0,resp1,stim/right_resp_img.png,"[-0.5, 0]",right,stim/gold_coin.png,gold,,,,,training,,,gold,deval,,,,,0.0,0.0,0.0,0.0,1.0,0.0,2.0,0.0,,,,,,,,,0.0,training_resp,,194.6456465772353,36.74242856563069,2.0,,right,gold,0.0,48.0,2.0,right,2021_Nov_12_1113,habits_v_MRI,5.0,40.0,1.0,5.0,30.0,15.0,5.0,15.0,30.0,30.0,60.0,RR,59.96664112031071,
16.0,0.0,resp1,stim/right_resp_img.png,"[-0.5, 0]",right,stim/gold_coin.png,gold,,,,,training,,,gold,deval,,,,,0.0,0.0,0.0,0.0,1.0,0.0,2.0,0.0,,,,,,,,,0.0,training_resp,,195.87941861874424,37.97620119364001,2.0,,right,gold,0.0,48.0,2.0,right,2021_Nov_12_1113,habits_v_MRI,5.0,40.0,1.0,5.0,30.0,15.0,5.0,15.0,30.0,30.0,60.0,RR,59.96664112031071,
16.0,0.0,resp1,stim/right_resp_img.png,"[-0.5, 0]",right,stim/gold_coin.png,gold,,,,,training,,,gold,deval,,,,,0.0,0.0,0.0,0.0,1.0,0.0,2.0,0.0,,,,,,,,,0.0,training_resp,,196.229443119606,38.32622892037034,2.0,,right,gold,0.0,48.0,2.0,right,2021_Nov_12_1113,habits_v_MRI,5.0,40.0,1.0,5.0,30.0,15.0,5.0,15.0,30.0,30.0,60.0,RR,59.96664112031071,
16.0,0.0,resp1,stim/right_resp_img.png,"[-0.5, 0]",right,stim/gold_coin.png,gold,,,,,training,,,gold,deval,,,,,0.0,0.0,0.0,0.0,1.0,0.0,2.0,0.0,,,,,,,,,0.0,training_resp,,196.5295794506092,38.62638636492193,2.0,,left,,,48.0,2.0,right,2021_Nov_12_1113,habits_v_MRI,5.0,40.0,1.0,5.0,30.0,15.0,5.0,15.0,30.0,30.0,60.0,RR,59.96664112031071,
16.0,0.0,resp1,stim/right_resp_img.png,"[-0.5, 0]",right,stim/gold_coin.png,gold,,,,,training,,,gold,deval,,,,,0.0,0.0,0.0,0.0,1.0,0.0,2.0,0.0,,,,,,,,,0.0,training_resp,,197.39655527845025,39.49331527319737,2.0,13.0,right,gold,1.0,48.0,2.0,right,2021_Nov_12_1113,habits_v_MRI,5.0,40.0,1.0,5.0,30.0,15.0,5.0,15.0,30.0,30.0,60.0,RR,59.96664112031071,
16.0,0.0,resp1,stim/right_resp_img.png,"[-0.5, 0]",right,stim/gold_coin.png,gold,,,,,training,,,gold,deval,,,,,0.0,0.0,0.0,0.0,1.0,0.0,2.0,0.0,,,,,,,,,0.0,training_resp,,198.9972326217685,41.09382136003114,2.0,,right,gold,0.0,48.0,2.0,right,2021_Nov_12_1113,habits_v_MRI,5.0,40.0,1.0,5.0,30.0,15.0,5.0,15.0,30.0,30.0,60.0,RR,59.96664112031071,
16.0,0.0,resp1,stim/right_resp_img.png,"[-0.5, 0]",right,stim/gold_coin.png,gold,,,,,training,,,gold,deval,,,,,0.0,0.0,0.0,0.0,1.0,0.0,2.0,0.0,,,,,,,,,0.0,training_resp,,200.0470081847161,42.14390512625687,2.0,,right,gold,0.0,48.0,2.0,right,2021_Nov_12_1113,habits_v_MRI,5.0,40.0,1.0,5.0,30.0,15.0,5.0,15.0,30.0,30.0,60.0,RR,59.96664112031071,
16.0,0.0,resp1,stim/right_resp_img.png,"[-0.5, 0]",right,stim/gold_coin.png,gold,,,,,training,,,gold,deval,,,,,0.0,0.0,0.0,0.0,1.0,0.0,2.0,0.0,,,,,,,,,0.0,training_resp,,201.01389788580127,43.11096021905541,2.0,,right,gold,0.0,48.0,2.0,right,2021_Nov_12_1113,habits_v_MRI,5.0,40.0,1.0,5.0,30.0,15.0,5.0,15.0,30.0,30.0,60.0,RR,59.96664112031071,
16.0,0.0,resp1,stim/right_resp_img.png,"[-0.5, 0]",right,stim/gold_coin.png,gold,,,,,training,,,gold,deval,,,,,0.0,0.0,0.0,0.0,1.0,0.0,2.0,0.0,,,,,,,,,0.0,training_resp,,202.24768107081763,44.34471437241882,2.0,,right,gold,0.0,48.0,2.0,right,2021_Nov_12_1113,habits_v_MRI,5.0,40.0,1.0,5.0,30.0,15.0,5.0,15.0,30.0,30.0,60.0,RR,59.96664112031071,
16.0,0.0,resp1,stim/right_resp_img.png,"[-0.5, 0]",right,stim/gold_coin.png,gold,,,,,training,,,gold,deval,,,,,0.0,0.0,0.0,0.0,1.0,0.0,2.0,0.0,,,,,,,,,0.0,training_resp,,202.56441169977188,44.66146318265237,2.0,,right,gold,0.0,48.0,2.0,right,2021_Nov_12_1113,habits_v_MRI,5.0,40.0,1.0,5.0,30.0,15.0,5.0,15.0,30.0,30.0,60.0,RR,59.96664112031071,
16.0,0.0,resp1,stim/right_resp_img.png,"[-0.5, 0]",right,stim/gold_coin.png,gold,,,,,training,,,gold,deval,,,,,0.0,0.0,0.0,0.0,1.0,0.0,2.0,0.0,,,,,,,,,0.0,training_resp,,203.714715489652,45.811762280529365,2.0,,right,gold,0.0,48.0,2.0,right,2021_Nov_12_1113,habits_v_MRI,5.0,40.0,1.0,5.0,30.0,15.0,5.0,15.0,30.0,30.0,60.0,RR,59.96664112031071,
16.0,0.0,resp1,stim/right_resp_img.png,"[-0.5, 0]",right,stim/gold_coin.png,gold,,,,,training,,,gold,deval,,,,,0.0,0.0,0.0,0.0,1.0,0.0,2.0,0.0,,,,,,,,,0.0,training_resp,,203.9314096677117,46.02845616545528,2.0,,right,gold,0.0,48.0,2.0,right,2021_Nov_12_1113,habits_v_MRI,5.0,40.0,1.0,5.0,30.0,15.0,5.0,15.0,30.0,30.0,60.0,RR,59.96664112031071,
16.0,0.0,resp1,stim/right_resp_img.png,"[-0.5, 0]",right,stim/gold_coin.png,gold,,,,,training,,,gold,deval,,,,,0.0,0.0,0.0,0.0,1.0,0.0,2.0,0.0,,,,,,,,,0.0,training_resp,,204.1982494874392,46.295316512463614,2.0,,right,gold,0.0,48.0,2.0,right,2021_Nov_12_1113,habits_v_MRI,5.0,40.0,1.0,5.0,30.0,15.0,5.0,15.0,30.0,30.0,60.0,RR,59.96664112031071,
16.0,0.0,resp1,stim/right_resp_img.png,"[-0.5, 0]",right,stim/gold_coin.png,gold,,,,,training,,,gold,deval,,,,,0.0,0.0,0.0,0.0,1.0,0.0,2.0,0.0,,,,,,,,,0.0,training_resp,,205.94873268622905,48.04576012282632,2.0,,right,gold,0.0,48.0,2.0,right,2021_Nov_12_1113,habits_v_MRI,5.0,40.0,1.0,5.0,30.0,15.0,5.0,15.0,30.0,30.0,60.0,RR,59.96664112031071,
16.0,0.0,resp1,stim/right_resp_img.png,"[-0.5, 0]",right,stim/gold_coin.png,gold,,,,,training,,,gold,deval,,,,,0.0,0.0,0.0,0.0,1.0,0.0,2.0,0.0,,,,,,,,,0.0,training_resp,,207.29922814271413,49.39626027131453,2.0,,right,gold,0.0,48.0,2.0,right,2021_Nov_12_1113,habits_v_MRI,5.0,40.0,1.0,5.0,30.0,15.0,5.0,15.0,30.0,30.0,60.0,RR,59.96664112031071,
16.0,0.0,resp1,stim/right_resp_img.png,"[-0.5, 0]",right,stim/gold_coin.png,gold,,,,,training,,,gold,deval,,,,,0.0,0.0,0.0,0.0,1.0,0.0,2.0,0.0,,,,,,,,,0.0,training_resp,,208.032734062057,50.12976179202087,2.0,,left,,,48.0,2.0,right,2021_Nov_12_1113,habits_v_MRI,5.0,40.0,1.0,5.0,30.0,15.0,5.0,15.0,30.0,30.0,60.0,RR,59.96664112031071,
16.0,0.0,resp1,stim/right_resp_img.png,"[-0.5, 0]",right,stim/gold_coin.png,gold,,,,,training,,,gold,deval,,,,,0.0,0.0,0.0,0.0,1.0,0.0,2.0,0.0,,,,,,,,,0.0,training_resp,,208.21625137422237,50.313245673896745,2.0,,right,gold,0.0,48.0,2.0,right,2021_Nov_12_1113,habits_v_MRI,5.0,40.0,1.0,5.0,30.0,15.0,5.0,15.0,30.0,30.0,60.0,RR,59.96664112031071,
16.0,0.0,resp1,stim/right_resp_img.png,"[-0.5, 0]",right,stim/gold_coin.png,gold,,,,,training,,,gold,deval,,,,,0.0,0.0,0.0,0.0,1.0,0.0,2.0,0.0,,,,,,,,,0.0,training_resp,,208.9164684067946,51.01347736874595,2.0,,left,,,48.0,2.0,right,2021_Nov_12_1113,habits_v_MRI,5.0,40.0,1.0,5.0,30.0,15.0,5.0,15.0,30.0,30.0,60.0,RR,59.96664112031071,
16.0,0.0,resp1,stim/right_resp_img.png,"[-0.5, 0]",right,stim/gold_coin.png,gold,,,,,training,,,gold,deval,,,,,0.0,0.0,0.0,0.0,1.0,0.0,2.0,0.0,,,,,,,,,0.0,training_resp,,209.65002623084,51.747044870164245,2.0,,right,gold,0.0,48.0,2.0,right,2021_Nov_12_1113,habits_v_MRI,5.0,40.0,1.0,5.0,30.0,15.0,5.0,15.0,30.0,30.0,60.0,RR,59.96664112031071,
16.0,0.0,resp1,stim/right_resp_img.png,"[-0.5, 0]",right,stim/gold_coin.png,gold,,,,,training,,,gold,deval,,,,,0.0,0.0,0.0,0.0,1.0,0.0,2.0,0.0,,,,,,,,,0.0,training_resp,,209.86661044112407,51.963648434728384,2.0,20.0,right,gold,1.0,48.0,2.0,right,2021_Nov_12_1113,habits_v_MRI,5.0,40.0,1.0,5.0,30.0,15.0,5.0,15.0,30.0,30.0,60.0,RR,59.96664112031071,
16.0,0.0,resp1,stim/right_resp_img.png,"[-0.5, 0]",right,stim/gold_coin.png,gold,,,,,training,,,gold,deval,,,,,0.0,0.0,0.0,0.0,1.0,0.0,2.0,0.0,,,,,,,,,0.0,ITI_start,23.333333333333336,210.3012714923825,52.397117434302345,,,,,,48.0,2.0,right,2021_Nov_12_1113,habits_v_MRI,5.0,40.0,1.0,5.0,30.0,15.0,5.0,15.0,30.0,30.0,60.0,RR,59.96664112031071,
16.0,1.0,resp2,stim/left_resp_img.png,"[0.5, 0]",left,stim/silver_coin.png,gold,,,,,training,,,silver,val,,,,,0.0,0.0,0.0,0.0,1.0,1.0,3.0,1.0,,,,,,,,,0.0,training_period_start,30.0,233.66265494097024,0.0,3.0,9.0,,,,48.0,2.0,right,2021_Nov_12_1113,habits_v_MRI,5.0,40.0,1.0,5.0,30.0,15.0,5.0,15.0,30.0,30.0,60.0,RR,59.96664112031071,
16.0,1.0,resp2,stim/left_resp_img.png,"[0.5, 0]",left,stim/silver_coin.png,gold,,,,,training,,,silver,val,,,,,0.0,0.0,0.0,0.0,1.0,1.0,3.0,1.0,,,,,,,,,0.0,training_resp,,234.8745322332252,1.231960064265877,3.0,,left,silver,0.0,48.0,2.0,right,2021_Nov_12_1113,habits_v_MRI,5.0,40.0,1.0,5.0,30.0,15.0,5.0,15.0,30.0,30.0,60.0,RR,59.96664112031071,
16.0,1.0,resp2,stim/left_resp_img.png,"[0.5, 0]",left,stim/silver_coin.png,gold,,,,,training,,,silver,val,,,,,0.0,0.0,0.0,0.0,1.0,1.0,3.0,1.0,,,,,,,,,0.0,training_resp,,236.04147841385569,2.3989062448963523,3.0,,left,silver,0.0,48.0,2.0,right,2021_Nov_12_1113,habits_v_MRI,5.0,40.0,1.0,5.0,30.0,15.0,5.0,15.0,30.0,30.0,60.0,RR,59.96664112031071,
16.0,1.0,resp2,stim/left_resp_img.png,"[0.5, 0]",left,stim/silver_coin.png,gold,,,,,training,,,silver,val,,,,,0.0,0.0,0.0,0.0,1.0,1.0,3.0,1.0,,,,,,,,,0.0,training_resp,,237.5419600731693,3.8993676700629294,3.0,,left,silver,0.0,48.0,2.0,right,2021_Nov_12_1113,habits_v_MRI,5.0,40.0,1.0,5.0,30.0,15.0,5.0,15.0,30.0,30.0,60.0,RR,59.96664112031071,
16.0,1.0,resp2,stim/left_resp_img.png,"[0.5, 0]",left,stim/silver_coin.png,gold,,,,,training,,,silver,val,,,,,0.0,0.0,0.0,0.0,1.0,1.0,3.0,1.0,,,,,,,,,0.0,training_resp,,238.2590262359008,4.616278998088092,3.0,,left,silver,0.0,48.0,2.0,right,2021_Nov_12_1113,habits_v_MRI,5.0,40.0,1.0,5.0,30.0,15.0,5.0,15.0,30.0,30.0,60.0,RR,59.96664112031071,
16.0,1.0,resp2,stim/left_resp_img.png,"[0.5, 0]",left,stim/silver_coin.png,gold,,,,,training,,,silver,val,,,,,0.0,0.0,0.0,0.0,1.0,1.0,3.0,1.0,,,,,,,,,0.0,training_resp,,238.44226085720584,4.799703937023878,3.0,,left,silver,0.0,48.0,2.0,right,2021_Nov_12_1113,habits_v_MRI,5.0,40.0,1.0,5.0,30.0,15.0,5.0,15.0,30.0,30.0,60.0,RR,59.96664112031071,
16.0,1.0,resp2,stim/left_resp_img.png,"[0.5, 0]",left,stim/silver_coin.png,gold,,,,,training,,,silver,val,,,,,0.0,0.0,0.0,0.0,1.0,1.0,3.0,1.0,,,,,,,,,0.0,training_resp,,239.5926007165108,5.950037051690742,3.0,,left,silver,0.0,48.0,2.0,right,2021_Nov_12_1113,habits_v_MRI,5.0,40.0,1.0,5.0,30.0,15.0,5.0,15.0,30.0,30.0,60.0,RR,59.96664112031071,
16.0,1.0,resp2,stim/left_resp_img.png,"[0.5, 0]",left,stim/silver_coin.png,gold,,,,,training,,,silver,val,,,,,0.0,0.0,0.0,0.0,1.0,1.0,3.0,1.0,,,,,,,,,0.0,training_resp,,239.80937143228948,6.166833280120045,3.0,,left,silver,0.0,48.0,2.0,right,2021_Nov_12_1113,habits_v_MRI,5.0,40.0,1.0,5.0,30.0,15.0,5.0,15.0,30.0,30.0,60.0,RR,59.96664112031071,
16.0,1.0,resp2,stim/left_resp_img.png,"[0.5, 0]",left,stim/silver_coin.png,gold,,,,,training,,,silver,val,,,,,0.0,0.0,0.0,0.0,1.0,1.0,3.0,1.0,,,,,,,,,0.0,training_resp,,240.81008607684635,7.167076382553205,3.0,,left,silver,0.0,48.0,2.0,right,2021_Nov_12_1113,habits_v_MRI,5.0,40.0,1.0,5.0,30.0,15.0,5.0,15.0,30.0,30.0,60.0,RR,59.96664112031071,
16.0,1.0,resp2,stim/left_resp_img.png,"[0.5, 0]",left,stim/silver_coin.png,gold,,,,,training,,,silver,val,,,,,0.0,0.0,0.0,0.0,1.0,1.0,3.0,1.0,,,,,,,,,0.0,training_resp,,241.67649623006585,8.0339378437493,3.0,26.0,left,silver,1.0,48.0,2.0,right,2021_Nov_12_1113,habits_v_MRI,5.0,40.0,1.0,5.0,30.0,15.0,5.0,15.0,30.0,30.0,60.0,RR,59.96664112031071,
16.0,1.0,resp2,stim/left_resp_img.png,"[0.5, 0]",left,stim/silver_coin.png,gold,,,,,training,,,silver,val,,,,,0.0,0.0,0.0,0.0,1.0,1.0,3.0,1.0,,,,,,,,,0.0,training_resp,,242.87632221682,9.234060890506951,3.0,,left,silver,0.0,48.0,2.0,right,2021_Nov_12_1113,habits_v_MRI,5.0,40.0,1.0,5.0,30.0,15.0,5.0,15.0,30.0,30.0,60.0,RR,59.96664112031071,
16.0,1.0,resp2,stim/left_resp_img.png,"[0.5, 0]",left,stim/silver_coin.png,gold,,,,,training,,,silver,val,,,,,0.0,0.0,0.0,0.0,1.0,1.0,3.0,1.0,,,,,,,,,0.0,training_resp,,243.159704429796,9.517461577896029,3.0,,left,silver,0.0,48.0,2.0,right,2021_Nov_12_1113,habits_v_MRI,5.0,40.0,1.0,5.0,30.0,15.0,5.0,15.0,30.0,30.0,60.0,RR,59.96664112031071,
16.0,1.0,resp2,stim/left_resp_img.png,"[0.5, 0]",left,stim/silver_coin.png,gold,,,,,training,,,silver,val,,,,,0.0,0.0,0.0,0.0,1.0,1.0,3.0,1.0,,,,,,,,,0.0,training_resp,,243.8764271994587,10.234191678930074,3.0,,left,silver,0.0,48.0,2.0,right,2021_Nov_12_1113,habits_v_MRI,5.0,40.0,1.0,5.0,30.0,15.0,5.0,15.0,30.0,30.0,60.0,RR,59.96664112031071,
16.0,1.0,resp2,stim/left_resp_img.png,"[0.5, 0]",left,stim/silver_coin.png,gold,,,,,training,,,silver,val,,,,,0.0,0.0,0.0,0.0,1.0,1.0,3.0,1.0,,,,,,,,,0.0,training_resp,,244.16019473969936,10.517700281459838,3.0,,left,silver,0.0,48.0,2.0,right,2021_Nov_12_1113,habits_v_MRI,5.0,40.0,1.0,5.0,30.0,15.0,5.0,15.0,30.0,30.0,60.0,RR,59.96664112031071,
16.0,1.0,resp2,stim/left_resp_img.png,"[0.5, 0]",left,stim/silver_coin.png,gold,,,,,training,,,silver,val,,,,,0.0,0.0,0.0,0.0,1.0,1.0,3.0,1.0,,,,,,,,,0.0,training_resp,,244.9604892777279,11.318249065196142,3.0,,left,silver,0.0,48.0,2.0,right,2021_Nov_12_1113,habits_v_MRI,5.0,40.0,1.0,5.0,30.0,15.0,5.0,15.0,30.0,30.0,60.0,RR,59.96664112031071,
16.0,1.0,resp2,stim/left_resp_img.png,"[0.5, 0]",left,stim/silver_coin.png,gold,,,,,training,,,silver,val,,,,,0.0,0.0,0.0,0.0,1.0,1.0,3.0,1.0,,,,,,,,,0.0,training_resp,,245.293739719782,11.651557863457128,3.0,,left,silver,0.0,48.0,2.0,right,2021_Nov_12_1113,habits_v_MRI,5.0,40.0,1.0,5.0,30.0,15.0,5.0,15.0,30.0,30.0,60.0,RR,59.96664112031071,
16.0,1.0,resp2,stim/left_resp_img.png,"[0.5, 0]",left,stim/silver_coin.png,gold,,,,,training,,,silver,val,,,,,0.0,0.0,0.0,0.0,1.0,1.0,3.0,1.0,,,,,,,,,0.0,training_resp,,246.02739255619235,12.38515498279594,3.0,,left,silver,0.0,48.0,2.0,right,2021_Nov_12_1113,habits_v_MRI,5.0,40.0,1.0,5.0,30.0,15.0,5.0,15.0,30.0,30.0,60.0,RR,59.96664112031071,
16.0,1.0,resp2,stim/left_resp_img.png,"[0.5, 0]",left,stim/silver_coin.png,gold,,,,,training,,,silver,val,,,,,0.0,0.0,0.0,0.0,1.0,1.0,3.0,1.0,,,,,,,,,0.0,training_resp,,246.3108073195908,12.668621357763186,3.0,,left,silver,0.0,48.0,2.0,right,2021_Nov_12_1113,habits_v_MRI,5.0,40.0,1.0,5.0,30.0,15.0,5.0,15.0,30.0,30.0,60.0,RR,59.96664112031071,
16.0,1.0,resp2,stim/left_resp_img.png,"[0.5, 0]",left,stim/silver_coin.png,gold,,,,,training,,,silver,val,,,,,0.0,0.0,0.0,0.0,1.0,1.0,3.0,1.0,,,,,,,,,0.0,training_resp,,247.19432993931696,13.552090019918978,3.0,,left,silver,0.0,48.0,2.0,right,2021_Nov_12_1113,habits_v_MRI,5.0,40.0,1.0,5.0,30.0,15.0,5.0,15.0,30.0,30.0,60.0,RR,59.96664112031071,
16.0,1.0,resp2,stim/left_resp_img.png,"[0.5, 0]",left,stim/silver_coin.png,gold,,,,,training,,,silver,val,,,,,0.0,0.0,0.0,0.0,1.0,1.0,3.0,1.0,,,,,,,,,0.0,training_resp,,247.37779388017952,13.73561231722124,3.0,,left,silver,0.0,48.0,2.0,right,2021_Nov_12_1113,habits_v_MRI,5.0,40.0,1.0,5.0,30.0,15.0,5.0,15.0,30.0,30.0,60.0,RR,59.96664112031071,
16.0,1.0,resp2,stim/left_resp_img.png,"[0.5, 0]",left,stim/silver_coin.png,gold,,,,,training,,,silver,val,,,,,0.0,0.0,0.0,0.0,1.0,1.0,3.0,1.0,,,,,,,,,0.0,training_resp,,248.878264102852,15.235999257536603,3.0,,left,silver,0.0,48.0,2.0,right,2021_Nov_12_1113,habits_v_MRI,5.0,40.0,1.0,5.0,30.0,15.0,5.0,15.0,30.0,30.0,60.0,RR,59.96664112031071,
16.0,1.0,resp2,stim/left_resp_img.png,"[0.5, 0]",left,stim/silver_coin.png,gold,,,,,training,,,silver,val,,,,,0.0,0.0,0.0,0.0,1.0,1.0,3.0,1.0,,,,,,,,,0.0,training_resp,,250.16204894473776,16.51976093277335,3.0,,left,silver,0.0,48.0,2.0,right,2021_Nov_12_1113,habits_v_MRI,5.0,40.0,1.0,5.0,30.0,15.0,5.0,15.0,30.0,30.0,60.0,RR,59.96664112031071,
16.0,1.0,resp2,stim/left_resp_img.png,"[0.5, 0]",left,stim/silver_coin.png,gold,,,,,training,,,silver,val,,,,,0.0,0.0,0.0,0.0,1.0,1.0,3.0,1.0,,,,,,,,,0.0,training_resp,,250.96232090261765,17.32006426807493,3.0,,left,silver,0.0,48.0,2.0,right,2021_Nov_12_1113,habits_v_MRI,5.0,40.0,1.0,5.0,30.0,15.0,5.0,15.0,30.0,30.0,60.0,RR,59.96664112031071,
16.0,1.0,resp2,stim/left_resp_img.png,"[0.5, 0]",left,stim/silver_coin.png,gold,,,,,training,,,silver,val,,,,,0.0,0.0,0.0,0.0,1.0,1.0,3.0,1.0,,,,,,,,,0.0,training_resp,,251.1623489370104,17.520139515399933,3.0,,left,silver,0.0,48.0,2.0,right,2021_Nov_12_1113,habits_v_MRI,5.0,40.0,1.0,5.0,30.0,15.0,5.0,15.0,30.0,30.0,60.0,RR,59.96664112031071,
16.0,1.0,resp2,stim/left_resp_img.png,"[0.5, 0]",left,stim/silver_coin.png,gold,,,,,training,,,silver,val,,,,,0.0,0.0,0.0,0.0,1.0,1.0,3.0,1.0,,,,,,,,,0.0,training_resp,,251.92960590147413,18.287165400804952,3.0,,right,,,48.0,2.0,right,2021_Nov_12_1113,habits_v_MRI,5.0,40.0,1.0,5.0,30.0,15.0,5.0,15.0,30.0,30.0,60.0,RR,59.96664112031071,
16.0,1.0,resp2,stim/left_resp_img.png,"[0.5, 0]",left,stim/silver_coin.png,gold,,,,,training,,,silver,val,,,,,0.0,0.0,0.0,0.0,1.0,1.0,3.0,1.0,,,,,,,,,0.0,training_resp,,252.0795616062824,18.43714808439836,3.0,,right,,,48.0,2.0,right,2021_Nov_12_1113,habits_v_MRI,5.0,40.0,1.0,5.0,30.0,15.0,5.0,15.0,30.0,30.0,60.0,RR,59.96664112031071,
16.0,1.0,resp2,stim/left_resp_img.png,"[0.5, 0]",left,stim/silver_coin.png,gold,,,,,training,,,silver,val,,,,,0.0,0.0,0.0,0.0,1.0,1.0,3.0,1.0,,,,,,,,,0.0,training_resp,,253.03007137333043,19.38760653324425,3.0,,left,silver,0.0,48.0,2.0,right,2021_Nov_12_1113,habits_v_MRI,5.0,40.0,1.0,5.0,30.0,15.0,5.0,15.0,30.0,30.0,60.0,RR,59.96664112031071,
16.0,1.0,resp2,stim/left_resp_img.png,"[0.5, 0]",left,stim/silver_coin.png,gold,,,,,training,,,silver,val,,,,,0.0,0.0,0.0,0.0,1.0,1.0,3.0,1.0,,,,,,,,,0.0,training_resp,,254.54722034931183,20.904706829926,3.0,,left,silver,0.0,48.0,2.0,right,2021_Nov_12_1113,habits_v_MRI,5.0,40.0,1.0,5.0,30.0,15.0,5.0,15.0,30.0,30.0,60.0,RR,59.96664112031071,
16.0,1.0,resp2,stim/left_resp_img.png,"[0.5, 0]",left,stim/silver_coin.png,gold,,,,,training,,,silver,val,,,,,0.0,0.0,0.0,0.0,1.0,1.0,3.0,1.0,,,,,,,,,0.0,training_resp,,254.7305013039149,21.088048779871315,3.0,,left,silver,0.0,48.0,2.0,right,2021_Nov_12_1113,habits_v_MRI,5.0,40.0,1.0,5.0,30.0,15.0,5.0,15.0,30.0,30.0,60.0,RR,59.96664112031071,
16.0,1.0,resp2,stim/left_resp_img.png,"[0.5, 0]",left,stim/silver_coin.png,gold,,,,,training,,,silver,val,,,,,0.0,0.0,0.0,0.0,1.0,1.0,3.0,1.0,,,,,,,,,0.0,training_resp,,255.68103130487725,22.03832629485987,3.0,,left,silver,0.0,48.0,2.0,right,2021_Nov_12_1113,habits_v_MRI,5.0,40.0,1.0,5.0,30.0,15.0,5.0,15.0,30.0,30.0,60.0,RR,59.96664112031071,
16.0,1.0,resp2,stim/left_resp_img.png,"[0.5, 0]",left,stim/silver_coin.png,gold,,,,,training,,,silver,val,,,,,0.0,0.0,0.0,0.0,1.0,1.0,3.0,1.0,,,,,,,,,0.0,training_resp,,256.2976443122607,22.655123754870147,3.0,,left,silver,0.0,48.0,2.0,right,2021_Nov_12_1113,habits_v_MRI,5.0,40.0,1.0,5.0,30.0,15.0,5.0,15.0,30.0,30.0,60.0,RR,59.96664112031071,
16.0,1.0,resp2,stim/left_resp_img.png,"[0.5, 0]",left,stim/silver_coin.png,gold,,,,,training,,,silver,val,,,,,0.0,0.0,0.0,0.0,1.0,1.0,3.0,1.0,,,,,,,,,0.0,training_resp,,257.5646858862601,23.92218057764694,3.0,,left,silver,0.0,48.0,2.0,right,2021_Nov_12_1113,habits_v_MRI,5.0,40.0,1.0,5.0,30.0,15.0,5.0,15.0,30.0,30.0,60.0,RR,59.96664112031071,
16.0,1.0,resp2,stim/left_resp_img.png,"[0.5, 0]",left,stim/silver_coin.png,gold,,,,,training,,,silver,val,,,,,0.0,0.0,0.0,0.0,1.0,1.0,3.0,1.0,,,,,,,,,0.0,training_resp,,257.8315735051874,24.189106612233445,3.0,,left,silver,0.0,48.0,2.0,right,2021_Nov_12_1113,habits_v_MRI,5.0,40.0,1.0,5.0,30.0,15.0,5.0,15.0,30.0,30.0,60.0,RR,59.96664112031071,
16.0,1.0,resp2,stim/left_resp_img.png,"[0.5, 0]",left,stim/silver_coin.png,gold,,,,,training,,,silver,val,,,,,0.0,0.0,0.0,0.0,1.0,1.0,3.0,1.0,,,,,,,,,0.0,training_resp,,258.03165872301906,24.389093298697844,3.0,,left,silver,0.0,48.0,2.0,right,2021_Nov_12_1113,habits_v_MRI,5.0,40.0,1.0,5.0,30.0,15.0,5.0,15.0,30.0,30.0,60.0,RR,59.96664112031071,
16.0,1.0,resp2,stim/left_resp_img.png,"[0.5, 0]",left,stim/silver_coin.png,gold,,,,,training,,,silver,val,,,,,0.0,0.0,0.0,0.0,1.0,1.0,3.0,1.0,,,,,,,,,0.0,training_resp,,258.21490184846334,24.57243554200977,3.0,,left,silver,0.0,48.0,2.0,right,2021_Nov_12_1113,habits_v_MRI,5.0,40.0,1.0,5.0,30.0,15.0,5.0,15.0,30.0,30.0,60.0,RR,59.96664112031071,
16.0,1.0,resp2,stim/left_resp_img.png,"[0.5, 0]",left,stim/silver_coin.png,gold,,,,,training,,,silver,val,,,,,0.0,0.0,0.0,0.0,1.0,1.0,3.0,1.0,,,,,,,,,0.0,training_resp,,259.1822554671671,25.54000557749532,3.0,,left,silver,0.0,48.0,2.0,right,2021_Nov_12_1113,habits_v_MRI,5.0,40.0,1.0,5.0,30.0,15.0,5.0,15.0,30.0,30.0,60.0,RR,59.96664112031071,
16.0,1.0,resp2,stim/left_resp_img.png,"[0.5, 0]",left,stim/silver_coin.png,gold,,,,,training,,,silver,val,,,,,0.0,0.0,0.0,0.0,1.0,1.0,3.0,1.0,,,,,,,,,0.0,training_resp,,259.7658514282666,26.12329128244892,3.0,,right,,,48.0,2.0,right,2021_Nov_12_1113,habits_v_MRI,5.0,40.0,1.0,5.0,30.0,15.0,5.0,15.0,30.0,30.0,60.0,RR,59.96664112031071,
16.0,1.0,resp2,stim/left_resp_img.png,"[0.5, 0]",left,stim/silver_coin.png,gold,,,,,training,,,silver,val,,,,,0.0,0.0,0.0,0.0,1.0,1.0,3.0,1.0,,,,,,,,,0.0,training_resp,,260.31584502081387,26.67326640058309,3.0,,left,silver,0.0,48.0,2.0,right,2021_Nov_12_1113,habits_v_MRI,5.0,40.0,1.0,5.0,30.0,15.0,5.0,15.0,30.0,30.0,60.0,RR,59.96664112031071,
16.0,1.0,resp2,stim/left_resp_img.png,"[0.5, 0]",left,stim/silver_coin.png,gold,,,,,training,,,silver,val,,,,,0.0,0.0,0.0,0.0,1.0,1.0,3.0,1.0,,,,,,,,,0.0,training_resp,,261.69932086765766,28.05673784855753,3.0,19.0,left,silver,1.0,48.0,2.0,right,2021_Nov_12_1113,habits_v_MRI,5.0,40.0,1.0,5.0,30.0,15.0,5.0,15.0,30.0,30.0,60.0,RR,59.96664112031071,
16.0,1.0,resp2,stim/left_resp_img.png,"[0.5, 0]",left,stim/silver_coin.png,gold,,,,,training,,,silver,val,,,,,0.0,0.0,0.0,0.0,1.0,1.0,3.0,1.0,,,,,,,,,0.0,ITI_start,16.666666666666668,263.3175892578438,29.673906853422523,,,,,,48.0,2.0,right,2021_Nov_12_1113,habits_v_MRI,5.0,40.0,1.0,5.0,30.0,15.0,5.0,15.0,30.0,30.0,60.0,RR,59.96664112031071,
16.0,0.0,resp1,stim/right_resp_img.png,"[-0.5, 0]",right,stim/gold_coin.png,gold,,,,,training,,,gold,deval,,,,,0.0,0.0,0.0,0.0,2.0,0.0,4.0,0.0,,,,,,,,,0.0,training_period_start,45.0,280.0221026618965,0.0,4.0,10.0,,,,48.0,2.0,right,2021_Nov_12_1113,habits_v_MRI,5.0,40.0,1.0,5.0,30.0,15.0,5.0,15.0,30.0,30.0,60.0,RR,59.96664112031071,
16.0,0.0,resp1,stim/right_resp_img.png,"[-0.5, 0]",right,stim/gold_coin.png,gold,,,,,training,,,gold,deval,,,,,0.0,0.0,0.0,0.0,2.0,0.0,4.0,0.0,,,,,,,,,0.0,training_resp,,281.5052803636063,1.4991403445601463,4.0,,right,gold,0.0,48.0,2.0,right,2021_Nov_12_1113,habits_v_MRI,5.0,40.0,1.0,5.0,30.0,15.0,5.0,15.0,30.0,30.0,60.0,RR,59.96664112031071,
16.0,0.0,resp1,stim/right_resp_img.png,"[-0.5, 0]",right,stim/gold_coin.png,gold,,,,,training,,,gold,deval,,,,,0.0,0.0,0.0,0.0,2.0,0.0,4.0,0.0,,,,,,,,,0.0,training_resp,,283.355846346356,3.349689905298874,4.0,,right,gold,0.0,48.0,2.0,right,2021_Nov_12_1113,habits_v_MRI,5.0,40.0,1.0,5.0,30.0,15.0,5.0,15.0,30.0,30.0,60.0,RR,59.96664112031071,
16.0,0.0,resp1,stim/right_resp_img.png,"[-0.5, 0]",right,stim/gold_coin.png,gold,,,,,training,,,gold,deval,,,,,0.0,0.0,0.0,0.0,2.0,0.0,4.0,0.0,,,,,,,,,0.0,training_resp,,284.2561043163296,4.2499886367004365,4.0,,right,gold,0.0,48.0,2.0,right,2021_Nov_12_1113,habits_v_MRI,5.0,40.0,1.0,5.0,30.0,15.0,5.0,15.0,30.0,30.0,60.0,RR,59.96664112031071,
16.0,0.0,resp1,stim/right_resp_img.png,"[-0.5, 0]",right,stim/gold_coin.png,gold,,,,,training,,,gold,deval,,,,,0.0,0.0,0.0,0.0,2.0,0.0,4.0,0.0,,,,,,,,,0.0,training_resp,,284.60624289046973,4.600119000067934,4.0,,right,gold,0.0,48.0,2.0,right,2021_Nov_12_1113,habits_v_MRI,5.0,40.0,1.0,5.0,30.0,15.0,5.0,15.0,30.0,30.0,60.0,RR,59.96664112031071,
16.0,0.0,resp1,stim/right_resp_img.png,"[-0.5, 0]",right,stim/gold_coin.png,gold,,,,,training,,,gold,deval,,,,,0.0,0.0,0.0,0.0,2.0,0.0,4.0,0.0,,,,,,,,,0.0,training_resp,,286.2566969697364,6.250577477971092,4.0,,right,gold,0.0,48.0,2.0,right,2021_Nov_12_1113,habits_v_MRI,5.0,40.0,1.0,5.0,30.0,15.0,5.0,15.0,30.0,30.0,60.0,RR,59.96664112031071,
16.0,0.0,resp1,stim/right_resp_img.png,"[-0.5, 0]",right,stim/gold_coin.png,gold,,,,,training,,,gold,deval,,,,,0.0,0.0,0.0,0.0,2.0,0.0,4.0,0.0,,,,,,,,,0.0,training_resp,,286.8562719952315,6.850467744749039,4.0,,right,gold,0.0,48.0,2.0,right,2021_Nov_12_1113,habits_v_MRI,5.0,40.0,1.0,5.0,30.0,15.0,5.0,15.0,30.0,30.0,60.0,RR,59.96664112031071,
16.0,0.0,resp1,stim/right_resp_img.png,"[-0.5, 0]",right,stim/gold_coin.png,gold,,,,,training,,,gold,deval,,,,,0.0,0.0,0.0,0.0,2.0,0.0,4.0,0.0,,,,,,,,,0.0,training_resp,,287.35628856369294,7.350498682353646,4.0,,right,gold,0.0,48.0,2.0,right,2021_Nov_12_1113,habits_v_MRI,5.0,40.0,1.0,5.0,30.0,15.0,5.0,15.0,30.0,30.0,60.0,RR,59.96664112031071,
16.0,0.0,resp1,stim/right_resp_img.png,"[-0.5, 0]",right,stim/gold_coin.png,gold,,,,,training,,,gold,deval,,,,,0.0,0.0,0.0,0.0,2.0,0.0,4.0,0.0,,,,,,,,,0.0,training_resp,,288.5410005666781,8.534860254265368,4.0,,right,gold,0.0,48.0,2.0,right,2021_Nov_12_1113,habits_v_MRI,5.0,40.0,1.0,5.0,30.0,15.0,5.0,15.0,30.0,30.0,60.0,RR,59.96664112031071,
16.0,0.0,resp1,stim/right_resp_img.png,"[-0.5, 0]",right,stim/gold_coin.png,gold,,,,,training,,,gold,deval,,,,,0.0,0.0,0.0,0.0,2.0,0.0,4.0,0.0,,,,,,,,,0.0,training_resp,,288.874178576516,8.868042076472193,4.0,,right,gold,0.0,48.0,2.0,right,2021_Nov_12_1113,habits_v_MRI,5.0,40.0,1.0,5.0,30.0,15.0,5.0,15.0,30.0,30.0,60.0,RR,59.96664112031071,
16.0,0.0,resp1,stim/right_resp_img.png,"[-0.5, 0]",right,stim/gold_coin.png,gold,,,,,training,,,gold,deval,,,,,0.0,0.0,0.0,0.0,2.0,0.0,4.0,0.0,,,,,,,,,0.0,training_resp,,290.35800288966857,10.351782813901082,4.0,11.0,right,gold,1.0,48.0,2.0,right,2021_Nov_12_1113,habits_v_MRI,5.0,40.0,1.0,5.0,30.0,15.0,5.0,15.0,30.0,30.0,60.0,RR,59.96664112031071,
16.0,0.0,resp1,stim/right_resp_img.png,"[-0.5, 0]",right,stim/gold_coin.png,gold,,,,,training,,,gold,deval,,,,,0.0,0.0,0.0,0.0,2.0,0.0,4.0,0.0,,,,,,,,,0.0,training_resp,,292.0085440634284,12.002285865601152,4.0,,right,gold,0.0,48.0,2.0,right,2021_Nov_12_1113,habits_v_MRI,5.0,40.0,1.0,5.0,30.0,15.0,5.0,15.0,30.0,30.0,60.0,RR,59.96664112031071,
16.0,0.0,resp1,stim/right_resp_img.png,"[-0.5, 0]",right,stim/gold_coin.png,gold,,,,,training,,,gold,deval,,,,,0.0,0.0,0.0,0.0,2.0,0.0,4.0,0.0,,,,,,,,,0.0,training_resp,,292.50855506025255,12.502423251979051,4.0,,right,gold,0.0,48.0,2.0,right,2021_Nov_12_1113,habits_v_MRI,5.0,40.0,1.0,5.0,30.0,15.0,5.0,15.0,30.0,30.0,60.0,RR,59.96664112031071,
16.0,0.0,resp1,stim/right_resp_img.png,"[-0.5, 0]",right,stim/gold_coin.png,gold,,,,,training,,,gold,deval,,,,,0.0,0.0,0.0,0.0,2.0,0.0,4.0,0.0,,,,,,,,,0.0,training_resp,,293.54226710344665,13.536145851947367,4.0,,right,gold,0.0,48.0,2.0,right,2021_Nov_12_1113,habits_v_MRI,5.0,40.0,1.0,5.0,30.0,15.0,5.0,15.0,30.0,30.0,60.0,RR,59.96664112031071,
16.0,0.0,resp1,stim/right_resp_img.png,"[-0.5, 0]",right,stim/gold_coin.png,gold,,,,,training,,,gold,deval,,,,,0.0,0.0,0.0,0.0,2.0,0.0,4.0,0.0,,,,,,,,,0.0,training_resp,,293.8589593167417,13.852806394686922,4.0,,right,gold,0.0,48.0,2.0,right,2021_Nov_12_1113,habits_v_MRI,5.0,40.0,1.0,5.0,30.0,15.0,5.0,15.0,30.0,30.0,60.0,RR,59.96664112031071,
16.0,0.0,resp1,stim/right_resp_img.png,"[-0.5, 0]",right,stim/gold_coin.png,gold,,,,,training,,,gold,deval,,,,,0.0,0.0,0.0,0.0,2.0,0.0,4.0,0.0,,,,,,,,,0.0,training_resp,,295.07605231180787,15.069892645115033,4.0,,right,gold,0.0,48.0,2.0,right,2021_Nov_12_1113,habits_v_MRI,5.0,40.0,1.0,5.0,30.0,15.0,5.0,15.0,30.0,30.0,60.0,RR,59.96664112031071,
16.0,0.0,resp1,stim/right_resp_img.png,"[-0.5, 0]",right,stim/gold_coin.png,gold,,,,,training,,,gold,deval,,,,,0.0,0.0,0.0,0.0,2.0,0.0,4.0,0.0,,,,,,,,,0.0,training_resp,,296.1096406043507,16.103480057790875,4.0,,right,gold,0.0,48.0,2.0,right,2021_Nov_12_1113,habits_v_MRI,5.0,40.0,1.0,5.0,30.0,15.0,5.0,15.0,30.0,30.0,60.0,RR,59.96664112031071,
16.0,0.0,resp1,stim/right_resp_img.png,"[-0.5, 0]",right,stim/gold_coin.png,gold,,,,,training,,,gold,deval,,,,,0.0,0.0,0.0,0.0,2.0,0.0,4.0,0.0,,,,,,,,,0.0,training_resp,,297.1765817117412,17.170438466826454,4.0,,right,gold,0.0,48.0,2.0,right,2021_Nov_12_1113,habits_v_MRI,5.0,40.0,1.0,5.0,30.0,15.0,5.0,15.0,30.0,30.0,60.0,RR,59.96664112031071,
16.0,0.0,resp1,stim/right_resp_img.png,"[-0.5, 0]",right,stim/gold_coin.png,gold,,,,,training,,,gold,deval,,,,,0.0,0.0,0.0,0.0,2.0,0.0,4.0,0.0,,,,,,,,,0.0,training_resp,,298.1772277362179,18.171071881894022,4.0,,right,gold,0.0,48.0,2.0,right,2021_Nov_12_1113,habits_v_MRI,5.0,40.0,1.0,5.0,30.0,15.0,5.0,15.0,30.0,30.0,60.0,RR,59.96664112031071,
16.0,0.0,resp1,stim/right_resp_img.png,"[-0.5, 0]",right,stim/gold_coin.png,gold,,,,,training,,,gold,deval,,,,,0.0,0.0,0.0,0.0,2.0,0.0,4.0,0.0,,,,,,,,,0.0,training_resp,,298.39395270543173,18.38783526653424,4.0,,right,gold,0.0,48.0,2.0,right,2021_Nov_12_1113,habits_v_MRI,5.0,40.0,1.0,5.0,30.0,15.0,5.0,15.0,30.0,30.0,60.0,RR,59.96664112031071,
16.0,0.0,resp1,stim/right_resp_img.png,"[-0.5, 0]",right,stim/gold_coin.png,gold,,,,,training,,,gold,deval,,,,,0.0,0.0,0.0,0.0,2.0,0.0,4.0,0.0,,,,,,,,,0.0,training_resp,,299.2942118484061,19.288088251138102,4.0,,right,gold,0.0,48.0,2.0,right,2021_Nov_12_1113,habits_v_MRI,5.0,40.0,1.0,5.0,30.0,15.0,5.0,15.0,30.0,30.0,60.0,RR,59.96664112031071,
16.0,0.0,resp1,stim/right_resp_img.png,"[-0.5, 0]",right,stim/gold_coin.png,gold,,,,,training,,,gold,deval,,,,,0.0,0.0,0.0,0.0,2.0,0.0,4.0,0.0,,,,,,,,,0.0,training_resp,,299.47788194241,19.47154691372998,4.0,17.0,right,gold,1.0,48.0,2.0,right,2021_Nov_12_1113,habits_v_MRI,5.0,40.0,1.0,5.0,30.0,15.0,5.0,15.0,30.0,30.0,60.0,RR,59.96664112031071,
16.0,0.0,resp1,stim/right_resp_img.png,"[-0.5, 0]",right,stim/gold_coin.png,gold,,,,,training,,,gold,deval,,,,,0.0,0.0,0.0,0.0,2.0,0.0,4.0,0.0,,,,,,,,,0.0,training_resp,,301.0440205775667,21.038206943077967,4.0,,right,gold,0.0,48.0,2.0,right,2021_Nov_12_1113,habits_v_MRI,5.0,40.0,1.0,5.0,30.0,15.0,5.0,15.0,30.0,30.0,60.0,RR,59.96664112031071,
16.0,0.0,resp1,stim/right_resp_img.png,"[-0.5, 0]",right,stim/gold_coin.png,gold,,,,,training,,,gold,deval,,,,,0.0,0.0,0.0,0.0,2.0,0.0,4.0,0.0,,,,,,,,,0.0,training_resp,,301.4276140166912,21.421827067853883,4.0,,right,gold,0.0,48.0,2.0,right,2021_Nov_12_1113,habits_v_MRI,5.0,40.0,1.0,5.0,30.0,15.0,5.0,15.0,30.0,30.0,60.0,RR,59.96664112031071,
16.0,0.0,resp1,stim/right_resp_img.png,"[-0.5, 0]",right,stim/gold_coin.png,gold,,,,,training,,,gold,deval,,,,,0.0,0.0,0.0,0.0,2.0,0.0,4.0,0.0,,,,,,,,,0.0,training_resp,,302.4113138462417,22.40527411759831,4.0,,right,gold,0.0,48.0,2.0,right,2021_Nov_12_1113,habits_v_MRI,5.0,40.0,1.0,5.0,30.0,15.0,5.0,15.0,30.0,30.0,60.0,RR,59.96664112031071,
16.0,0.0,resp1,stim/right_resp_img.png,"[-0.5, 0]",right,stim/gold_coin.png,gold,,,,,training,,,gold,deval,,,,,0.0,0.0,0.0,0.0,2.0,0.0,4.0,0.0,,,,,,,,,0.0,training_resp,,302.8279806349892,22.822109523927796,4.0,,right,gold,0.0,48.0,2.0,right,2021_Nov_12_1113,habits_v_MRI,5.0,40.0,1.0,5.0,30.0,15.0,5.0,15.0,30.0,30.0,60.0,RR,59.96664112031071,
16.0,0.0,resp1,stim/right_resp_img.png,"[-0.5, 0]",right,stim/gold_coin.png,gold,,,,,training,,,gold,deval,,,,,0.0,0.0,0.0,0.0,2.0,0.0,4.0,0.0,,,,,,,,,0.0,training_resp,,303.2614968472626,23.25571136455983,4.0,,right,gold,0.0,48.0,2.0,right,2021_Nov_12_1113,habits_v_MRI,5.0,40.0,1.0,5.0,30.0,15.0,5.0,15.0,30.0,30.0,60.0,RR,59.96664112031071,
16.0,0.0,resp1,stim/right_resp_img.png,"[-0.5, 0]",right,stim/gold_coin.png,gold,,,,,training,,,gold,deval,,,,,0.0,0.0,0.0,0.0,2.0,0.0,4.0,0.0,,,,,,,,,0.0,training_resp,,304.17850365675986,24.1725859194994,4.0,,right,gold,0.0,48.0,2.0,right,2021_Nov_12_1113,habits_v_MRI,5.0,40.0,1.0,5.0,30.0,15.0,5.0,15.0,30.0,30.0,60.0,RR,59.96664112031071,
16.0,0.0,resp1,stim/right_resp_img.png,"[-0.5, 0]",right,stim/gold_coin.png,gold,,,,,training,,,gold,deval,,,,,0.0,0.0,0.0,0.0,2.0,0.0,4.0,0.0,,,,,,,,,0.0,training_resp,,304.5283733229153,24.522552650421854,4.0,,right,gold,0.0,48.0,2.0,right,2021_Nov_12_1113,habits_v_MRI,5.0,40.0,1.0,5.0,30.0,15.0,5.0,15.0,30.0,30.0,60.0,RR,59.96664112031071,
16.0,0.0,resp1,stim/right_resp_img.png,"[-0.5, 0]",right,stim/gold_coin.png,gold,,,,,training,,,gold,deval,,,,,0.0,0.0,0.0,0.0,2.0,0.0,4.0,0.0,,,,,,,,,0.0,training_resp,,304.87917903554626,24.873121418990195,4.0,,right,gold,0.0,48.0,2.0,right,2021_Nov_12_1113,habits_v_MRI,5.0,40.0,1.0,5.0,30.0,15.0,5.0,15.0,30.0,30.0,60.0,RR,59.96664112031071,
16.0,0.0,resp1,stim/right_resp_img.png,"[-0.5, 0]",right,stim/gold_coin.png,gold,,,,,training,,,gold,deval,,,,,0.0,0.0,0.0,0.0,2.0,0.0,4.0,0.0,,,,,,,,,0.0,training_resp,,305.1133425626904,25.10723919956945,4.0,,right,gold,0.0,48.0,2.0,right,2021_Nov_12_1113,habits_v_MRI,5.0,40.0,1.0,5.0,30.0,15.0,5.0,15.0,30.0,30.0,60.0,RR,59.96664112031071,
16.0,0.0,resp1,stim/right_resp_img.png,"[-0.5, 0]",right,stim/gold_coin.png,gold,,,,,training,,,gold,deval,,,,,0.0,0.0,0.0,0.0,2.0,0.0,4.0,0.0,,,,,,,,,0.0,training_resp,,305.94639432942495,25.940283635165542,4.0,,right,gold,0.0,48.0,2.0,right,2021_Nov_12_1113,habits_v_MRI,5.0,40.0,1.0,5.0,30.0,15.0,5.0,15.0,30.0,30.0,60.0,RR,59.96664112031071,
16.0,0.0,resp1,stim/right_resp_img.png,"[-0.5, 0]",right,stim/gold_coin.png,gold,,,,,training,,,gold,deval,,,,,0.0,0.0,0.0,0.0,2.0,0.0,4.0,0.0,,,,,,,,,0.0,training_resp,,307.063100442756,27.056929046055306,4.0,,right,gold,0.0,48.0,2.0,right,2021_Nov_12_1113,habits_v_MRI,5.0,40.0,1.0,5.0,30.0,15.0,5.0,15.0,30.0,30.0,60.0,RR,59.96664112031071,
16.0,0.0,resp1,stim/right_resp_img.png,"[-0.5, 0]",right,stim/gold_coin.png,gold,,,,,training,,,gold,deval,,,,,0.0,0.0,0.0,0.0,2.0,0.0,4.0,0.0,,,,,,,,,0.0,training_resp,,307.2964173639193,27.290330422809348,4.0,,right,gold,0.0,48.0,2.0,right,2021_Nov_12_1113,habits_v_MRI,5.0,40.0,1.0,5.0,30.0,15.0,5.0,15.0,30.0,30.0,60.0,RR,59.96664112031071,
16.0,0.0,resp1,stim/right_resp_img.png,"[-0.5, 0]",right,stim/gold_coin.png,gold,,,,,training,,,gold,deval,,,,,0.0,0.0,0.0,0.0,2.0,0.0,4.0,0.0,,,,,,,,,0.0,training_resp,,308.3628027671948,28.35690790298395,4.0,,right,gold,0.0,48.0,2.0,right,2021_Nov_12_1113,habits_v_MRI,5.0,40.0,1.0,5.0,30.0,15.0,5.0,15.0,30.0,30.0,60.0,RR,59.96664112031071,
16.0,0.0,resp1,stim/right_resp_img.png,"[-0.5, 0]",right,stim/gold_coin.png,gold,,,,,training,,,gold,deval,,,,,0.0,0.0,0.0,0.0,2.0,0.0,4.0,0.0,,,,,,,,,0.0,training_resp,,308.58017434738576,28.57405544212088,4.0,,right,gold,0.0,48.0,2.0,right,2021_Nov_12_1113,habits_v_MRI,5.0,40.0,1.0,5.0,30.0,15.0,5.0,15.0,30.0,30.0,60.0,RR,59.96664112031071,
16.0,0.0,resp1,stim/right_resp_img.png,"[-0.5, 0]",right,stim/gold_coin.png,gold,,,,,training,,,gold,deval,,,,,0.0,0.0,0.0,0.0,2.0,0.0,4.0,0.0,,,,,,,,,0.0,training_resp,,309.73050130391493,29.724362457636744,4.0,,right,gold,0.0,48.0,2.0,right,2021_Nov_12_1113,habits_v_MRI,5.0,40.0,1.0,5.0,30.0,15.0,5.0,15.0,30.0,30.0,60.0,RR,59.96664112031071,
16.0,0.0,resp1,stim/right_resp_img.png,"[-0.5, 0]",right,stim/gold_coin.png,gold,,,,,training,,,gold,deval,,,,,0.0,0.0,0.0,0.0,2.0,0.0,4.0,0.0,,,,,,,,,0.0,training_resp,,310.13040371099487,30.12431618315168,4.0,,right,gold,0.0,48.0,2.0,right,2021_Nov_12_1113,habits_v_MRI,5.0,40.0,1.0,5.0,30.0,15.0,5.0,15.0,30.0,30.0,60.0,RR,59.96664112031071,
16.0,0.0,resp1,stim/right_resp_img.png,"[-0.5, 0]",right,stim/gold_coin.png,gold,,,,,training,,,gold,deval,,,,,0.0,0.0,0.0,0.0,2.0,0.0,4.0,0.0,,,,,,,,,0.0,training_resp,,310.48058392643,30.47451487323269,4.0,15.0,right,gold,1.0,48.0,2.0,right,2021_Nov_12_1113,habits_v_MRI,5.0,40.0,1.0,5.0,30.0,15.0,5.0,15.0,30.0,30.0,60.0,RR,59.96664112031071,
16.0,0.0,resp1,stim/right_resp_img.png,"[-0.5, 0]",right,stim/gold_coin.png,gold,,,,,training,,,gold,deval,,,,,0.0,0.0,0.0,0.0,2.0,0.0,4.0,0.0,,,,,,,,,0.0,training_resp,,311.61434444319457,31.60826248722151,4.0,,right,gold,0.0,48.0,2.0,right,2021_Nov_12_1113,habits_v_MRI,5.0,40.0,1.0,5.0,30.0,15.0,5.0,15.0,30.0,30.0,60.0,RR,59.96664112031071,
16.0,0.0,resp1,stim/right_resp_img.png,"[-0.5, 0]",right,stim/gold_coin.png,gold,,,,,training,,,gold,deval,,,,,0.0,0.0,0.0,0.0,2.0,0.0,4.0,0.0,,,,,,,,,0.0,training_resp,,312.1310368326958,32.12496279436164,4.0,,right,gold,0.0,48.0,2.0,right,2021_Nov_12_1113,habits_v_MRI,5.0,40.0,1.0,5.0,30.0,15.0,5.0,15.0,30.0,30.0,60.0,RR,59.96664112031071,
16.0,0.0,resp1,stim/right_resp_img.png,"[-0.5, 0]",right,stim/gold_coin.png,gold,,,,,training,,,gold,deval,,,,,0.0,0.0,0.0,0.0,2.0,0.0,4.0,0.0,,,,,,,,,0.0,training_resp,,312.631285360083,32.6252098553814,4.0,,right,gold,0.0,48.0,2.0,right,2021_Nov_12_1113,habits_v_MRI,5.0,40.0,1.0,5.0,30.0,15.0,5.0,15.0,30.0,30.0,60.0,RR,59.96664112031071,
16.0,0.0,resp1,stim/right_resp_img.png,"[-0.5, 0]",right,stim/gold_coin.png,gold,,,,,training,,,gold,deval,,,,,0.0,0.0,0.0,0.0,2.0,0.0,4.0,0.0,,,,,,,,,0.0,training_resp,,313.7315951175988,33.72549908561632,4.0,,right,gold,0.0,48.0,2.0,right,2021_Nov_12_1113,habits_v_MRI,5.0,40.0,1.0,5.0,30.0,15.0,5.0,15.0,30.0,30.0,60.0,RR,59.96664112031071,
16.0,0.0,resp1,stim/right_resp_img.png,"[-0.5, 0]",right,stim/gold_coin.png,gold,,,,,training,,,gold,deval,,,,,0.0,0.0,0.0,0.0,2.0,0.0,4.0,0.0,,,,,,,,,0.0,training_resp,,314.2150751578156,34.20898675033823,4.0,,right,gold,0.0,48.0,2.0,right,2021_Nov_12_1113,habits_v_MRI,5.0,40.0,1.0,5.0,30.0,15.0,5.0,15.0,30.0,30.0,60.0,RR,59.96664112031071,
16.0,0.0,resp1,stim/right_resp_img.png,"[-0.5, 0]",right,stim/gold_coin.png,gold,,,,,training,,,gold,deval,,,,,0.0,0.0,0.0,0.0,2.0,0.0,4.0,0.0,,,,,,,,,0.0,training_resp,,314.4651033829432,34.459050751524046,4.0,,right,gold,0.0,48.0,2.0,right,2021_Nov_12_1113,habits_v_MRI,5.0,40.0,1.0,5.0,30.0,15.0,5.0,15.0,30.0,30.0,60.0,RR,59.96664112031071,
16.0,0.0,resp1,stim/right_resp_img.png,"[-0.5, 0]",right,stim/gold_coin.png,gold,,,,,training,,,gold,deval,,,,,0.0,0.0,0.0,0.0,2.0,0.0,4.0,0.0,,,,,,,,,0.0,training_resp,,315.7489187223837,35.7428071484901,4.0,,right,gold,0.0,48.0,2.0,right,2021_Nov_12_1113,habits_v_MRI,5.0,40.0,1.0,5.0,30.0,15.0,5.0,15.0,30.0,30.0,60.0,RR,59.96664112031071,
16.0,0.0,resp1,stim/right_resp_img.png,"[-0.5, 0]",right,stim/gold_coin.png,gold,,,,,training,,,gold,deval,,,,,0.0,0.0,0.0,0.0,2.0,0.0,4.0,0.0,,,,,,,,,0.0,training_resp,,316.4157058161218,36.40962268714793,4.0,,right,gold,0.0,48.0,2.0,right,2021_Nov_12_1113,habits_v_MRI,5.0,40.0,1.0,5.0,30.0,15.0,5.0,15.0,30.0,30.0,60.0,RR,59.96664112031071,
16.0,0.0,resp1,stim/right_resp_img.png,"[-0.5, 0]",right,stim/gold_coin.png,gold,,,,,training,,,gold,deval,,,,,0.0,0.0,0.0,0.0,2.0,0.0,4.0,0.0,,,,,,,,,0.0,training_resp,,316.84916073968634,36.84310136386193,4.0,,right,gold,0.0,48.0,2.0,right,2021_Nov_12_1113,habits_v_MRI,5.0,40.0,1.0,5.0,30.0,15.0,5.0,15.0,30.0,30.0,60.0,RR,59.96664112031071,
16.0,0.0,resp1,stim/right_resp_img.png,"[-0.5, 0]",right,stim/gold_coin.png,gold,,,,,training,,,gold,deval,,,,,0.0,0.0,0.0,0.0,2.0,0.0,4.0,0.0,,,,,,,,,0.0,training_resp,,317.8161768305581,37.81008695671335,4.0,,right,gold,0.0,48.0,2.0,right,2021_Nov_12_1113,habits_v_MRI,5.0,40.0,1.0,5.0,30.0,15.0,5.0,15.0,30.0,30.0,60.0,RR,59.96664112031071,
16.0,0.0,resp1,stim/right_resp_img.png,"[-0.5, 0]",right,stim/gold_coin.png,gold,,,,,training,,,gold,deval,,,,,0.0,0.0,0.0,0.0,2.0,0.0,4.0,0.0,,,,,,,,,0.0,training_resp,,317.9996612989344,37.99348755623214,4.0,,right,gold,0.0,48.0,2.0,right,2021_Nov_12_1113,habits_v_MRI,5.0,40.0,1.0,5.0,30.0,15.0,5.0,15.0,30.0,30.0,60.0,RR,59.96664112031071,
16.0,0.0,resp1,stim/right_resp_img.png,"[-0.5, 0]",right,stim/gold_coin.png,gold,,,,,training,,,gold,deval,,,,,0.0,0.0,0.0,0.0,2.0,0.0,4.0,0.0,,,,,,,,,0.0,training_resp,,319.2668981757015,39.26055141701363,4.0,,right,gold,0.0,48.0,2.0,right,2021_Nov_12_1113,habits_v_MRI,5.0,40.0,1.0,5.0,30.0,15.0,5.0,15.0,30.0,30.0,60.0,RR,59.96664112031071,
16.0,0.0,resp1,stim/right_resp_img.png,"[-0.5, 0]",right,stim/gold_coin.png,gold,,,,,training,,,gold,deval,,,,,0.0,0.0,0.0,0.0,2.0,0.0,4.0,0.0,,,,,,,,,0.0,training_resp,,322.1841750664171,42.17805821378715,4.0,,right,gold,0.0,48.0,2.0,right,2021_Nov_12_1113,habits_v_MRI,5.0,40.0,1.0,5.0,30.0,15.0,5.0,15.0,30.0,30.0,60.0,RR,59.96664112031071,
16.0,0.0,resp1,stim/right_resp_img.png,"[-0.5, 0]",right,stim/gold_coin.png,gold,,,,,training,,,gold,deval,,,,,0.0,0.0,0.0,0.0,2.0,0.0,4.0,0.0,,,,,,,,,0.0,training_resp,,324.6182381855324,44.6121128287632,4.0,,right,gold,0.0,48.0,2.0,right,2021_Nov_12_1113,habits_v_MRI,5.0,40.0,1.0,5.0,30.0,15.0,5.0,15.0,30.0,30.0,60.0,RR,59.96664112031071,
16.0,0.0,resp1,stim/right_resp_img.png,"[-0.5, 0]",right,stim/gold_coin.png,gold,,,,,training,,,gold,deval,,,,,0.0,0.0,0.0,0.0,2.0,0.0,4.0,0.0,,,,,,,,,0.0,ITI_start,15.0,324.7194247536827,44.7121519187931,,,,,,48.0,2.0,right,2021_Nov_12_1113,habits_v_MRI,5.0,40.0,1.0,5.0,30.0,15.0,5.0,15.0,30.0,30.0,60.0,RR,59.96664112031071,
16.0,1.0,resp2,stim/left_resp_img.png,"[0.5, 0]",left,stim/silver_coin.png,gold,,,,,training,,,silver,val,,,,,0.0,0.0,0.0,0.0,2.0,1.0,5.0,1.0,,,,,,,,,0.0,training_period_start,45.0,339.755078682676,0.0,5.0,13.0,,,,48.0,2.0,right,2021_Nov_12_1113,habits_v_MRI,5.0,40.0,1.0,5.0,30.0,15.0,5.0,15.0,30.0,30.0,60.0,RR,59.96664112031071,
16.0,1.0,resp2,stim/left_resp_img.png,"[0.5, 0]",left,stim/silver_coin.png,gold,,,,,training,,,silver,val,,,,,0.0,0.0,0.0,0.0,2.0,1.0,5.0,1.0,,,,,,,,,0.0,training_resp,,340.9558122709859,1.2154663503170011,5.0,,left,silver,0.0,48.0,2.0,right,2021_Nov_12_1113,habits_v_MRI,5.0,40.0,1.0,5.0,30.0,15.0,5.0,15.0,30.0,30.0,60.0,RR,59.96664112031071,
16.0,1.0,resp2,stim/left_resp_img.png,"[0.5, 0]",left,stim/silver_coin.png,gold,,,,,training,,,silver,val,,,,,0.0,0.0,0.0,0.0,2.0,1.0,5.0,1.0,,,,,,,,,0.0,training_resp,,341.90624901931733,2.165916001657024,5.0,,left,silver,0.0,48.0,2.0,right,2021_Nov_12_1113,habits_v_MRI,5.0,40.0,1.0,5.0,30.0,15.0,5.0,15.0,30.0,30.0,60.0,RR,59.96664112031071,
16.0,1.0,resp2,stim/left_resp_img.png,"[0.5, 0]",left,stim/silver_coin.png,gold,,,,,training,,,silver,val,,,,,0.0,0.0,0.0,0.0,2.0,1.0,5.0,1.0,,,,,,,,,0.0,training_resp,,342.2393531308044,2.4990728974808007,5.0,,left,silver,0.0,48.0,2.0,right,2021_Nov_12_1113,habits_v_MRI,5.0,40.0,1.0,5.0,30.0,15.0,5.0,15.0,30.0,30.0,60.0,RR,59.96664112031071,
16.0,1.0,resp2,stim/left_resp_img.png,"[0.5, 0]",left,stim/silver_coin.png,gold,,,,,training,,,silver,val,,,,,0.0,0.0,0.0,0.0,2.0,1.0,5.0,1.0,,,,,,,,,0.0,training_resp,,343.05679913726635,3.3164640667382628,5.0,,left,silver,0.0,48.0,2.0,right,2021_Nov_12_1113,habits_v_MRI,5.0,40.0,1.0,5.0,30.0,15.0,5.0,15.0,30.0,30.0,60.0,RR,59.96664112031071,
16.0,1.0,resp2,stim/left_resp_img.png,"[0.5, 0]",left,stim/silver_coin.png,gold,,,,,training,,,silver,val,,,,,0.0,0.0,0.0,0.0,2.0,1.0,5.0,1.0,,,,,,,,,0.0,training_resp,,343.5068507047836,3.766537334769964,5.0,,left,silver,0.0,48.0,2.0,right,2021_Nov_12_1113,habits_v_MRI,5.0,40.0,1.0,5.0,30.0,15.0,5.0,15.0,30.0,30.0,60.0,RR,59.96664112031071,
16.0,1.0,resp2,stim/left_resp_img.png,"[0.5, 0]",left,stim/silver_coin.png,gold,,,,,training,,,silver,val,,,,,0.0,0.0,0.0,0.0,2.0,1.0,5.0,1.0,,,,,,,,,0.0,training_resp,,344.97387896548025,5.2335459475871176,5.0,,left,silver,0.0,48.0,2.0,right,2021_Nov_12_1113,habits_v_MRI,5.0,40.0,1.0,5.0,30.0,15.0,5.0,15.0,30.0,30.0,60.0,RR,59.96664112031071,
16.0,1.0,resp2,stim/left_resp_img.png,"[0.5, 0]",left,stim/silver_coin.png,gold,,,,,training,,,silver,val,,,,,0.0,0.0,0.0,0.0,2.0,1.0,5.0,1.0,,,,,,,,,0.0,training_resp,,345.7415637781378,6.000911120558158,5.0,,left,silver,0.0,48.0,2.0,right,2021_Nov_12_1113,habits_v_MRI,5.0,40.0,1.0,5.0,30.0,15.0,5.0,15.0,30.0,30.0,60.0,RR,59.96664112031071,
16.0,1.0,resp2,stim/left_resp_img.png,"[0.5, 0]",left,stim/silver_coin.png,gold,,,,,training,,,silver,val,,,,,0.0,0.0,0.0,0.0,2.0,1.0,5.0,1.0,,,,,,,,,0.0,training_resp,,346.1584839329589,6.41775942966342,5.0,,left,silver,0.0,48.0,2.0,right,2021_Nov_12_1113,habits_v_MRI,5.0,40.0,1.0,5.0,30.0,15.0,5.0,15.0,30.0,30.0,60.0,RR,59.96664112031071,
16.0,1.0,resp2,stim/left_resp_img.png,"[0.5, 0]",left,stim/silver_coin.png,gold,,,,,training,,,silver,val,,,,,0.0,0.0,0.0,0.0,2.0,1.0,5.0,1.0,,,,,,,,,0.0,training_resp,,347.0588067106437,7.318056694697589,5.0,,left,silver,0.0,48.0,2.0,right,2021_Nov_12_1113,habits_v_MRI,5.0,40.0,1.0,5.0,30.0,15.0,5.0,15.0,30.0,30.0,60.0,RR,59.96664112031071,
16.0,1.0,resp2,stim/left_resp_img.png,"[0.5, 0]",left,stim/silver_coin.png,gold,,,,,training,,,silver,val,,,,,0.0,0.0,0.0,0.0,2.0,1.0,5.0,1.0,,,,,,,,,0.0,training_resp,,347.4754142635502,7.734761605737731,5.0,,left,silver,0.0,48.0,2.0,right,2021_Nov_12_1113,habits_v_MRI,5.0,40.0,1.0,5.0,30.0,15.0,5.0,15.0,30.0,30.0,60.0,RR,59.96664112031071,
16.0,1.0,resp2,stim/left_resp_img.png,"[0.5, 0]",left,stim/silver_coin.png,gold,,,,,training,,,silver,val,,,,,0.0,0.0,0.0,0.0,2.0,1.0,5.0,1.0,,,,,,,,,0.0,training_resp,,349.0427030159626,9.301925728097558,5.0,,left,silver,0.0,48.0,2.0,right,2021_Nov_12_1113,habits_v_MRI,5.0,40.0,1.0,5.0,30.0,15.0,5.0,15.0,30.0,30.0,60.0,RR,59.96664112031071,
16.0,1.0,resp2,stim/left_resp_img.png,"[0.5, 0]",left,stim/silver_coin.png,gold,,,,,training,,,silver,val,,,,,0.0,0.0,0.0,0.0,2.0,1.0,5.0,1.0,,,,,,,,,0.0,training_resp,,349.57600407255813,9.835369889391586,5.0,,left,silver,0.0,48.0,2.0,right,2021_Nov_12_1113,habits_v_MRI,5.0,40.0,1.0,5.0,30.0,15.0,5.0,15.0,30.0,30.0,60.0,RR,59.96664112031071,
16.0,1.0,resp2,stim/left_resp_img.png,"[0.5, 0]",left,stim/silver_coin.png,gold,,,,,training,,,silver,val,,,,,0.0,0.0,0.0,0.0,2.0,1.0,5.0,1.0,,,,,,,,,0.0,training_resp,,350.4097989287693,10.66906621446833,5.0,,right,,,48.0,2.0,right,2021_Nov_12_1113,habits_v_MRI,5.0,40.0,1.0,5.0,30.0,15.0,5.0,15.0,30.0,30.0,60.0,RR,59.96664112031071,
16.0,1.0,resp2,stim/left_resp_img.png,"[0.5, 0]",left,stim/silver_coin.png,gold,,,,,training,,,silver,val,,,,,0.0,0.0,0.0,0.0,2.0,1.0,5.0,1.0,,,,,,,,,0.0,training_resp,,350.759815805126,11.019120919751003,5.0,,right,,,48.0,2.0,right,2021_Nov_12_1113,habits_v_MRI,5.0,40.0,1.0,5.0,30.0,15.0,5.0,15.0,30.0,30.0,60.0,RR,59.96664112031071,
16.0,1.0,resp2,stim/left_resp_img.png,"[0.5, 0]",left,stim/silver_coin.png,gold,,,,,training,,,silver,val,,,,,0.0,0.0,0.0,0.0,2.0,1.0,5.0,1.0,,,,,,,,,0.0,training_resp,,351.043295082869,11.30259521235712,5.0,16.0,left,silver,1.0,48.0,2.0,right,2021_Nov_12_1113,habits_v_MRI,5.0,40.0,1.0,5.0,30.0,15.0,5.0,15.0,30.0,30.0,60.0,RR,59.96664112031071,
16.0,1.0,resp2,stim/left_resp_img.png,"[0.5, 0]",left,stim/silver_coin.png,gold,,,,,training,,,silver,val,,,,,0.0,0.0,0.0,0.0,2.0,1.0,5.0,1.0,,,,,,,,,0.0,training_resp,,352.64400380384177,12.90333384461701,5.0,,left,silver,0.0,48.0,2.0,right,2021_Nov_12_1113,habits_v_MRI,5.0,40.0,1.0,5.0,30.0,15.0,5.0,15.0,30.0,30.0,60.0,RR,59.96664112031071,
16.0,1.0,resp2,stim/left_resp_img.png,"[0.5, 0]",left,stim/silver_coin.png,gold,,,,,training,,,silver,val,,,,,0.0,0.0,0.0,0.0,2.0,1.0,5.0,1.0,,,,,,,,,0.0,training_resp,,353.6271077541169,13.886462134309111,5.0,,right,,,48.0,2.0,right,2021_Nov_12_1113,habits_v_MRI,5.0,40.0,1.0,5.0,30.0,15.0,5.0,15.0,30.0,30.0,60.0,RR,59.96664112031071,
16.0,1.0,resp2,stim/left_resp_img.png,"[0.5, 0]",left,stim/silver_coin.png,gold,,,,,training,,,silver,val,,,,,0.0,0.0,0.0,0.0,2.0,1.0,5.0,1.0,,,,,,,,,0.0,training_resp,,354.1939677784685,14.453313068021089,5.0,,left,silver,0.0,48.0,2.0,right,2021_Nov_12_1113,habits_v_MRI,5.0,40.0,1.0,5.0,30.0,15.0,5.0,15.0,30.0,30.0,60.0,RR,59.96664112031071,
16.0,1.0,resp2,stim/left_resp_img.png,"[0.5, 0]",left,stim/silver_coin.png,gold,,,,,training,,,silver,val,,,,,0.0,0.0,0.0,0.0,2.0,1.0,5.0,1.0,,,,,,,,,0.0,training_resp,,354.69403390586376,14.953399429330602,5.0,,left,silver,0.0,48.0,2.0,right,2021_Nov_12_1113,habits_v_MRI,5.0,40.0,1.0,5.0,30.0,15.0,5.0,15.0,30.0,30.0,60.0,RR,59.96664112031071,
16.0,1.0,resp2,stim/left_resp_img.png,"[0.5, 0]",left,stim/silver_coin.png,gold,,,,,training,,,silver,val,,,,,0.0,0.0,0.0,0.0,2.0,1.0,5.0,1.0,,,,,,,,,0.0,training_resp,,355.9443885155488,16.203717676457018,5.0,,left,silver,0.0,48.0,2.0,right,2021_Nov_12_1113,habits_v_MRI,5.0,40.0,1.0,5.0,30.0,15.0,5.0,15.0,30.0,30.0,60.0,RR,59.96664112031071,
16.0,1.0,resp2,stim/left_resp_img.png,"[0.5, 0]",left,stim/silver_coin.png,gold,,,,,training,,,silver,val,,,,,0.0,0.0,0.0,0.0,2.0,1.0,5.0,1.0,,,,,,,,,0.0,training_resp,,356.64470349275507,16.904008607380092,5.0,,left,silver,0.0,48.0,2.0,right,2021_Nov_12_1113,habits_v_MRI,5.0,40.0,1.0,5.0,30.0,15.0,5.0,15.0,30.0,30.0,60.0,RR,59.96664112031071,
16.0,1.0,resp2,stim/left_resp_img.png,"[0.5, 0]",left,stim/silver_coin.png,gold,,,,,training,,,silver,val,,,,,0.0,0.0,0.0,0.0,2.0,1.0,5.0,1.0,,,,,,,,,0.0,training_resp,,356.8779928488657,17.137364237336442,5.0,,left,silver,0.0,48.0,2.0,right,2021_Nov_12_1113,habits_v_MRI,5.0,40.0,1.0,5.0,30.0,15.0,5.0,15.0,30.0,30.0,60.0,RR,59.96664112031071,
16.0,1.0,resp2,stim/left_resp_img.png,"[0.5, 0]",left,stim/silver_coin.png,gold,,,,,training,,,silver,val,,,,,0.0,0.0,0.0,0.0,2.0,1.0,5.0,1.0,,,,,,,,,0.0,training_resp,,358.4287063642405,18.687847846653312,5.0,,left,silver,0.0,48.0,2.0,right,2021_Nov_12_1113,habits_v_MRI,5.0,40.0,1.0,5.0,30.0,15.0,5.0,15.0,30.0,30.0,60.0,RR,59.96664112031071,
16.0,1.0,resp2,stim/left_resp_img.png,"[0.5, 0]",left,stim/silver_coin.png,gold,,,,,training,,,silver,val,,,,,0.0,0.0,0.0,0.0,2.0,1.0,5.0,1.0,,,,,,,,,0.0,training_resp,,358.66179660498165,18.921209341613576,5.0,,left,silver,0.0,48.0,2.0,right,2021_Nov_12_1113,habits_v_MRI,5.0,40.0,1.0,5.0,30.0,15.0,5.0,15.0,30.0,30.0,60.0,RR,59.96664112031071,
16.0,1.0,resp2,stim/left_resp_img.png,"[0.5, 0]",left,stim/silver_coin.png,gold,,,,,training,,,silver,val,,,,,0.0,0.0,0.0,0.0,2.0,1.0,5.0,1.0,,,,,,,,,0.0,training_resp,,358.928518245928,19.187943005701527,5.0,,left,silver,0.0,48.0,2.0,right,2021_Nov_12_1113,habits_v_MRI,5.0,40.0,1.0,5.0,30.0,15.0,5.0,15.0,30.0,30.0,60.0,RR,59.96664112031071,
16.0,1.0,resp2,stim/left_resp_img.png,"[0.5, 0]",left,stim/silver_coin.png,gold,,,,,training,,,silver,val,,,,,0.0,0.0,0.0,0.0,2.0,1.0,5.0,1.0,,,,,,,,,0.0,training_resp,,360.11231003771536,20.37169286306016,5.0,,left,silver,0.0,48.0,2.0,right,2021_Nov_12_1113,habits_v_MRI,5.0,40.0,1.0,5.0,30.0,15.0,5.0,15.0,30.0,30.0,60.0,RR,59.96664112031071,
16.0,1.0,resp2,stim/left_resp_img.png,"[0.5, 0]",left,stim/silver_coin.png,gold,,,,,training,,,silver,val,,,,,0.0,0.0,0.0,0.0,2.0,1.0,5.0,1.0,,,,,,,,,0.0,training_resp,,361.09589960589074,21.355294161243364,5.0,,left,silver,0.0,48.0,2.0,right,2021_Nov_12_1113,habits_v_MRI,5.0,40.0,1.0,5.0,30.0,15.0,5.0,15.0,30.0,30.0,60.0,RR,59.96664112031071,
16.0,1.0,resp2,stim/left_resp_img.png,"[0.5, 0]",left,stim/silver_coin.png,gold,,,,,training,,,silver,val,,,,,0.0,0.0,0.0,0.0,2.0,1.0,5.0,1.0,,,,,,,,,0.0,training_resp,,361.4959697509185,21.75539333745837,5.0,,left,silver,0.0,48.0,2.0,right,2021_Nov_12_1113,habits_v_MRI,5.0,40.0,1.0,5.0,30.0,15.0,5.0,15.0,30.0,30.0,60.0,RR,59.96664112031071,
16.0,1.0,resp2,stim/left_resp_img.png,"[0.5, 0]",left,stim/silver_coin.png,gold,,,,,training,,,silver,val,,,,,0.0,0.0,0.0,0.0,2.0,1.0,5.0,1.0,,,,,,,,,0.0,training_resp,,361.8295260500163,22.08884172164835,5.0,,left,silver,0.0,48.0,2.0,right,2021_Nov_12_1113,habits_v_MRI,5.0,40.0,1.0,5.0,30.0,15.0,5.0,15.0,30.0,30.0,60.0,RR,59.96664112031071,
16.0,1.0,resp2,stim/left_resp_img.png,"[0.5, 0]",left,stim/silver_coin.png,gold,,,,,training,,,silver,val,,,,,0.0,0.0,0.0,0.0,2.0,1.0,5.0,1.0,,,,,,,,,0.0,training_resp,,362.74561910005286,23.005306022940204,5.0,,left,silver,0.0,48.0,2.0,right,2021_Nov_12_1113,habits_v_MRI,5.0,40.0,1.0,5.0,30.0,15.0,5.0,15.0,30.0,30.0,60.0,RR,59.96664112031071,
16.0,1.0,resp2,stim/left_resp_img.png,"[0.5, 0]",left,stim/silver_coin.png,gold,,,,,training,,,silver,val,,,,,0.0,0.0,0.0,0.0,2.0,1.0,5.0,1.0,,,,,,,,,0.0,training_resp,,363.3624693446327,23.622163892025128,5.0,,right,,,48.0,2.0,right,2021_Nov_12_1113,habits_v_MRI,5.0,40.0,1.0,5.0,30.0,15.0,5.0,15.0,30.0,30.0,60.0,RR,59.96664112031071,
16.0,1.0,resp2,stim/left_resp_img.png,"[0.5, 0]",left,stim/silver_coin.png,gold,,,,,training,,,silver,val,,,,,0.0,0.0,0.0,0.0,2.0,1.0,5.0,1.0,,,,,,,,,0.0,training_resp,,363.4629081310704,23.72223172010854,5.0,,right,,,48.0,2.0,right,2021_Nov_12_1113,habits_v_MRI,5.0,40.0,1.0,5.0,30.0,15.0,5.0,15.0,30.0,30.0,60.0,RR,59.96664112031071,
16.0,1.0,resp2,stim/left_resp_img.png,"[0.5, 0]",left,stim/silver_coin.png,gold,,,,,training,,,silver,val,,,,,0.0,0.0,0.0,0.0,2.0,1.0,5.0,1.0,,,,,,,,,0.0,training_resp,,364.6137368341442,24.872885647928346,5.0,,left,silver,0.0,48.0,2.0,right,2021_Nov_12_1113,habits_v_MRI,5.0,40.0,1.0,5.0,30.0,15.0,5.0,15.0,30.0,30.0,60.0,RR,59.96664112031071,
16.0,1.0,resp2,stim/left_resp_img.png,"[0.5, 0]",left,stim/silver_coin.png,gold,,,,,training,,,silver,val,,,,,0.0,0.0,0.0,0.0,2.0,1.0,5.0,1.0,,,,,,,,,0.0,training_resp,,364.98038906324655,25.23980942415073,5.0,13.0,left,silver,1.0,48.0,2.0,right,2021_Nov_12_1113,habits_v_MRI,5.0,40.0,1.0,5.0,30.0,15.0,5.0,15.0,30.0,30.0,60.0,RR,59.96664112031071,
16.0,1.0,resp2,stim/left_resp_img.png,"[0.5, 0]",left,stim/silver_coin.png,gold,,,,,training,,,silver,val,,,,,0.0,0.0,0.0,0.0,2.0,1.0,5.0,1.0,,,,,,,,,0.0,training_resp,,366.497485548025,26.75687775714323,5.0,,left,silver,0.0,48.0,2.0,right,2021_Nov_12_1113,habits_v_MRI,5.0,40.0,1.0,5.0,30.0,15.0,5.0,15.0,30.0,30.0,60.0,RR,59.96664112031071,
16.0,1.0,resp2,stim/left_resp_img.png,"[0.5, 0]",left,stim/silver_coin.png,gold,,,,,training,,,silver,val,,,,,0.0,0.0,0.0,0.0,2.0,1.0,5.0,1.0,,,,,,,,,0.0,training_resp,,366.96427393192425,27.22368520218879,5.0,,left,silver,0.0,48.0,2.0,right,2021_Nov_12_1113,habits_v_MRI,5.0,40.0,1.0,5.0,30.0,15.0,5.0,15.0,30.0,30.0,60.0,RR,59.96664112031071,
16.0,1.0,resp2,stim/left_resp_img.png,"[0.5, 0]",left,stim/silver_coin.png,gold,,,,,training,,,silver,val,,,,,0.0,0.0,0.0,0.0,2.0,1.0,5.0,1.0,,,,,,,,,0.0,training_resp,,367.2144006881863,27.47381401131861,5.0,,left,silver,0.0,48.0,2.0,right,2021_Nov_12_1113,habits_v_MRI,5.0,40.0,1.0,5.0,30.0,15.0,5.0,15.0,30.0,30.0,60.0,RR,59.96664112031071,
16.0,1.0,resp2,stim/left_resp_img.png,"[0.5, 0]",left,stim/silver_coin.png,gold,,,,,training,,,silver,val,,,,,0.0,0.0,0.0,0.0,2.0,1.0,5.0,1.0,,,,,,,,,0.0,training_resp,,368.9315979327075,29.19097284041345,5.0,,left,silver,0.0,48.0,2.0,right,2021_Nov_12_1113,habits_v_MRI,5.0,40.0,1.0,5.0,30.0,15.0,5.0,15.0,30.0,30.0,60.0,RR,59.96664112031071,
16.0,1.0,resp2,stim/left_resp_img.png,"[0.5, 0]",left,stim/silver_coin.png,gold,,,,,training,,,silver,val,,,,,0.0,0.0,0.0,0.0,2.0,1.0,5.0,1.0,,,,,,,,,0.0,training_resp,,369.3817107891664,29.64111854042858,5.0,,left,silver,0.0,48.0,2.0,right,2021_Nov_12_1113,habits_v_MRI,5.0,40.0,1.0,5.0,30.0,15.0,5.0,15.0,30.0,30.0,60.0,RR,59.96664112031071,
16.0,1.0,resp2,stim/left_resp_img.png,"[0.5, 0]",left,stim/silver_coin.png,gold,,,,,training,,,silver,val,,,,,0.0,0.0,0.0,0.0,2.0,1.0,5.0,1.0,,,,,,,,,0.0,training_resp,,369.6484696723055,29.90788240893744,5.0,,left,silver,0.0,48.0,2.0,right,2021_Nov_12_1113,habits_v_MRI,5.0,40.0,1.0,5.0,30.0,15.0,5.0,15.0,30.0,30.0,60.0,RR,59.96664112031071,
16.0,1.0,resp2,stim/left_resp_img.png,"[0.5, 0]",left,stim/silver_coin.png,gold,,,,,training,,,silver,val,,,,,0.0,0.0,0.0,0.0,2.0,1.0,5.0,1.0,,,,,,,,,0.0,training_resp,,369.8818818992004,30.14130313973874,5.0,,left,silver,0.0,48.0,2.0,right,2021_Nov_12_1113,habits_v_MRI,5.0,40.0,1.0,5.0,30.0,15.0,5.0,15.0,30.0,30.0,60.0,RR,59.96664112031071,
16.0,1.0,resp2,stim/left_resp_img.png,"[0.5, 0]",left,stim/silver_coin.png,gold,,,,,training,,,silver,val,,,,,0.0,0.0,0.0,0.0,2.0,1.0,5.0,1.0,,,,,,,,,0.0,training_resp,,371.232344805263,31.491720885736868,5.0,,left,silver,0.0,48.0,2.0,right,2021_Nov_12_1113,habits_v_MRI,5.0,40.0,1.0,5.0,30.0,15.0,5.0,15.0,30.0,30.0,60.0,RR,59.96664112031071,
16.0,1.0,resp2,stim/left_resp_img.png,"[0.5, 0]",left,stim/silver_coin.png,gold,,,,,training,,,silver,val,,,,,0.0,0.0,0.0,0.0,2.0,1.0,5.0,1.0,,,,,,,,,0.0,training_resp,,371.4656256570015,31.72504308540374,5.0,,left,silver,0.0,48.0,2.0,right,2021_Nov_12_1113,habits_v_MRI,5.0,40.0,1.0,5.0,30.0,15.0,5.0,15.0,30.0,30.0,60.0,RR,59.96664112031071,
16.0,1.0,resp2,stim/left_resp_img.png,"[0.5, 0]",left,stim/silver_coin.png,gold,,,,,training,,,silver,val,,,,,0.0,0.0,0.0,0.0,2.0,1.0,5.0,1.0,,,,,,,,,0.0,training_resp,,371.7157409766223,31.975149021251127,5.0,,left,silver,0.0,48.0,2.0,right,2021_Nov_12_1113,habits_v_MRI,5.0,40.0,1.0,5.0,30.0,15.0,5.0,15.0,30.0,30.0,60.0,RR,59.96664112031071,
16.0,1.0,resp2,stim/left_resp_img.png,"[0.5, 0]",left,stim/silver_coin.png,gold,,,,,training,,,silver,val,,,,,0.0,0.0,0.0,0.0,2.0,1.0,5.0,1.0,,,,,,,,,0.0,training_resp,,373.2662371955812,33.525614155922085,5.0,,left,silver,0.0,48.0,2.0,right,2021_Nov_12_1113,habits_v_MRI,5.0,40.0,1.0,5.0,30.0,15.0,5.0,15.0,30.0,30.0,60.0,RR,59.96664112031071,
16.0,1.0,resp2,stim/left_resp_img.png,"[0.5, 0]",left,stim/silver_coin.png,gold,,,,,training,,,silver,val,,,,,0.0,0.0,0.0,0.0,2.0,1.0,5.0,1.0,,,,,,,,,0.0,training_resp,,373.64944002893753,33.908941032830626,5.0,,left,silver,0.0,48.0,2.0,right,2021_Nov_12_1113,habits_v_MRI,5.0,40.0,1.0,5.0,30.0,15.0,5.0,15.0,30.0,30.0,60.0,RR,59.96664112031071,
16.0,1.0,resp2,stim/left_resp_img.png,"[0.5, 0]",left,stim/silver_coin.png,gold,,,,,training,,,silver,val,,,,,0.0,0.0,0.0,0.0,2.0,1.0,5.0,1.0,,,,,,,,,0.0,training_resp,,375.9501534709707,36.20964919659309,5.0,18.0,left,silver,1.0,48.0,2.0,right,2021_Nov_12_1113,habits_v_MRI,5.0,40.0,1.0,5.0,30.0,15.0,5.0,15.0,30.0,30.0,60.0,RR,59.96664112031071,
16.0,1.0,resp2,stim/left_resp_img.png,"[0.5, 0]",left,stim/silver_coin.png,gold,,,,,training,,,silver,val,,,,,0.0,0.0,0.0,0.0,2.0,1.0,5.0,1.0,,,,,,,,,0.0,training_resp,,378.03410558146425,38.29360306635499,5.0,,left,silver,0.0,48.0,2.0,right,2021_Nov_12_1113,habits_v_MRI,5.0,40.0,1.0,5.0,30.0,15.0,5.0,15.0,30.0,30.0,60.0,RR,59.96664112031071,
16.0,1.0,resp2,stim/left_resp_img.png,"[0.5, 0]",left,stim/silver_coin.png,gold,,,,,training,,,silver,val,,,,,0.0,0.0,0.0,0.0,2.0,1.0,5.0,1.0,,,,,,,,,0.0,training_resp,,378.36752493400127,38.62706406018697,5.0,,left,silver,0.0,48.0,2.0,right,2021_Nov_12_1113,habits_v_MRI,5.0,40.0,1.0,5.0,30.0,15.0,5.0,15.0,30.0,30.0,60.0,RR,59.96664112031071,
16.0,1.0,resp2,stim/left_resp_img.png,"[0.5, 0]",left,stim/silver_coin.png,gold,,,,,training,,,silver,val,,,,,0.0,0.0,0.0,0.0,2.0,1.0,5.0,1.0,,,,,,,,,0.0,training_resp,,378.8677485352382,39.12723517022096,5.0,,left,silver,0.0,48.0,2.0,right,2021_Nov_12_1113,habits_v_MRI,5.0,40.0,1.0,5.0,30.0,15.0,5.0,15.0,30.0,30.0,60.0,RR,59.96664112031071,
16.0,1.0,resp2,stim/left_resp_img.png,"[0.5, 0]",left,stim/silver_coin.png,gold,,,,,training,,,silver,val,,,,,0.0,0.0,0.0,0.0,2.0,1.0,5.0,1.0,,,,,,,,,0.0,training_resp,,380.3181197429076,40.57761458866298,5.0,,left,silver,0.0,48.0,2.0,right,2021_Nov_12_1113,habits_v_MRI,5.0,40.0,1.0,5.0,30.0,15.0,5.0,15.0,30.0,30.0,60.0,RR,59.96664112031071,
16.0,1.0,resp2,stim/left_resp_img.png,"[0.5, 0]",left,stim/silver_coin.png,gold,,,,,training,,,silver,val,,,,,0.0,0.0,0.0,0.0,2.0,1.0,5.0,1.0,,,,,,,,,0.0,training_resp,,380.5684822702314,40.82784574129619,5.0,,left,silver,0.0,48.0,2.0,right,2021_Nov_12_1113,habits_v_MRI,5.0,40.0,1.0,5.0,30.0,15.0,5.0,15.0,30.0,30.0,60.0,RR,59.96664112031071,
16.0,1.0,resp2,stim/left_resp_img.png,"[0.5, 0]",left,stim/silver_coin.png,gold,,,,,training,,,silver,val,,,,,0.0,0.0,0.0,0.0,2.0,1.0,5.0,1.0,,,,,,,,,0.0,training_resp,,380.86864880565554,41.12795890541747,5.0,,left,silver,0.0,48.0,2.0,right,2021_Nov_12_1113,habits_v_MRI,5.0,40.0,1.0,5.0,30.0,15.0,5.0,15.0,30.0,30.0,60.0,RR,59.96664112031071,
16.0,1.0,resp2,stim/left_resp_img.png,"[0.5, 0]",left,stim/silver_coin.png,gold,,,,,training,,,silver,val,,,,,0.0,0.0,0.0,0.0,2.0,1.0,5.0,1.0,,,,,,,,,0.0,training_resp,,382.1857465805952,42.44504964235239,5.0,,left,silver,0.0,48.0,2.0,right,2021_Nov_12_1113,habits_v_MRI,5.0,40.0,1.0,5.0,30.0,15.0,5.0,15.0,30.0,30.0,60.0,RR,59.96664112031071,
16.0,1.0,resp2,stim/left_resp_img.png,"[0.5, 0]",left,stim/silver_coin.png,gold,,,,,training,,,silver,val,,,,,0.0,0.0,0.0,0.0,2.0,1.0,5.0,1.0,,,,,,,,,0.0,training_resp,,382.4357944531366,42.69514971319586,5.0,,left,silver,0.0,48.0,2.0,right,2021_Nov_12_1113,habits_v_MRI,5.0,40.0,1.0,5.0,30.0,15.0,5.0,15.0,30.0,30.0,60.0,RR,59.96664112031071,
16.0,1.0,resp2,stim/left_resp_img.png,"[0.5, 0]",left,stim/silver_coin.png,gold,,,,,training,,,silver,val,,,,,0.0,0.0,0.0,0.0,2.0,1.0,5.0,1.0,,,,,,,,,0.0,training_resp,,382.652433500858,42.91178846755065,5.0,,left,silver,0.0,48.0,2.0,right,2021_Nov_12_1113,habits_v_MRI,5.0,40.0,1.0,5.0,30.0,15.0,5.0,15.0,30.0,30.0,60.0,RR,59.96664112031071,
16.0,1.0,resp2,stim/left_resp_img.png,"[0.5, 0]",left,stim/silver_coin.png,gold,,,,,training,,,silver,val,,,,,0.0,0.0,0.0,0.0,2.0,1.0,5.0,1.0,,,,,,,,,0.0,training_resp,,383.852898474317,44.1122335002292,5.0,,left,silver,0.0,48.0,2.0,right,2021_Nov_12_1113,habits_v_MRI,5.0,40.0,1.0,5.0,30.0,15.0,5.0,15.0,30.0,30.0,60.0,RR,59.96664112031071,
16.0,1.0,resp2,stim/left_resp_img.png,"[0.5, 0]",left,stim/silver_coin.png,gold,,,,,training,,,silver,val,,,,,0.0,0.0,0.0,0.0,2.0,1.0,5.0,1.0,,,,,,,,,0.0,ITI_start,30.0,384.42078222637065,44.67900173808448,,,,,,48.0,2.0,right,2021_Nov_12_1113,habits_v_MRI,5.0,40.0,1.0,5.0,30.0,15.0,5.0,15.0,30.0,30.0,60.0,RR,59.96664112031071,
16.0,0.0,resp1,stim/right_resp_img.png,"[-0.5, 0]",right,stim/gold_coin.png,gold,,,,,training,,,gold,deval,,,,,0.0,0.0,0.0,0.0,3.0,0.0,6.0,0.0,,,,,,,,,0.0,training_period_start,30.0,414.4427667092532,0.0,6.0,15.0,,,,48.0,2.0,right,2021_Nov_12_1113,habits_v_MRI,5.0,40.0,1.0,5.0,30.0,15.0,5.0,15.0,30.0,30.0,60.0,RR,59.96664112031071,
16.0,0.0,resp1,stim/right_resp_img.png,"[-0.5, 0]",right,stim/gold_coin.png,gold,,,,,training,,,gold,deval,,,,,0.0,0.0,0.0,0.0,3.0,0.0,6.0,0.0,,,,,,,,,0.0,training_resp,,415.69526701211,1.2657061242498455,6.0,,right,gold,0.0,48.0,2.0,right,2021_Nov_12_1113,habits_v_MRI,5.0,40.0,1.0,5.0,30.0,15.0,5.0,15.0,30.0,30.0,60.0,RR,59.96664112031071,
16.0,0.0,resp1,stim/right_resp_img.png,"[-0.5, 0]",right,stim/gold_coin.png,gold,,,,,training,,,gold,deval,,,,,0.0,0.0,0.0,0.0,3.0,0.0,6.0,0.0,,,,,,,,,0.0,training_resp,,416.3287259237841,1.8991638631559908,6.0,,right,gold,0.0,48.0,2.0,right,2021_Nov_12_1113,habits_v_MRI,5.0,40.0,1.0,5.0,30.0,15.0,5.0,15.0,30.0,30.0,60.0,RR,59.96664112031071,
16.0,0.0,resp1,stim/right_resp_img.png,"[-0.5, 0]",right,stim/gold_coin.png,gold,,,,,training,,,gold,deval,,,,,0.0,0.0,0.0,0.0,3.0,0.0,6.0,0.0,,,,,,,,,0.0,training_resp,,417.1956258006394,2.7660091957077384,6.0,,right,gold,0.0,48.0,2.0,right,2021_Nov_12_1113,habits_v_MRI,5.0,40.0,1.0,5.0,30.0,15.0,5.0,15.0,30.0,30.0,60.0,RR,59.96664112031071,
16.0,0.0,resp1,stim/right_resp_img.png,"[-0.5, 0]",right,stim/gold_coin.png,gold,,,,,training,,,gold,deval,,,,,0.0,0.0,0.0,0.0,3.0,0.0,6.0,0.0,,,,,,,,,0.0,training_resp,,417.3791316759307,2.949601872358471,6.0,,right,gold,0.0,48.0,2.0,right,2021_Nov_12_1113,habits_v_MRI,5.0,40.0,1.0,5.0,30.0,15.0,5.0,15.0,30.0,30.0,60.0,RR,59.96664112031071,
16.0,0.0,resp1,stim/right_resp_img.png,"[-0.5, 0]",right,stim/gold_coin.png,gold,,,,,training,,,gold,deval,,,,,0.0,0.0,0.0,0.0,3.0,0.0,6.0,0.0,,,,,,,,,0.0,training_resp,,418.31274070125073,3.8831651508808136,6.0,,right,gold,0.0,48.0,2.0,right,2021_Nov_12_1113,habits_v_MRI,5.0,40.0,1.0,5.0,30.0,15.0,5.0,15.0,30.0,30.0,60.0,RR,59.96664112031071,
16.0,0.0,resp1,stim/right_resp_img.png,"[-0.5, 0]",right,stim/gold_coin.png,gold,,,,,training,,,gold,deval,,,,,0.0,0.0,0.0,0.0,3.0,0.0,6.0,0.0,,,,,,,,,0.0,training_resp,,418.7127451587003,4.283177525969222,6.0,,right,gold,0.0,48.0,2.0,right,2021_Nov_12_1113,habits_v_MRI,5.0,40.0,1.0,5.0,30.0,15.0,5.0,15.0,30.0,30.0,60.0,RR,59.96664112031071,
16.0,0.0,resp1,stim/right_resp_img.png,"[-0.5, 0]",right,stim/gold_coin.png,gold,,,,,training,,,gold,deval,,,,,0.0,0.0,0.0,0.0,3.0,0.0,6.0,0.0,,,,,,,,,0.0,training_resp,,419.3463504009415,4.916788926580921,6.0,,right,gold,0.0,48.0,2.0,right,2021_Nov_12_1113,habits_v_MRI,5.0,40.0,1.0,5.0,30.0,15.0,5.0,15.0,30.0,30.0,60.0,RR,59.96664112031071,
