list,trial_num_python,condition,stimulus,position,corrResp,coin_img,devalued_coin,stimulus_choice1,stimulus_choice2,position1,position2,phase,corrResp1,corrResp2,outcome,cond_val,outcome_choice1,outcome_choice2,cond_val1,cond_val2,blockLoop.thisRepN,blockLoop.thisTrialN,blockLoop.thisN,blockLoop.thisIndex,trialLoop.thisRepN,trialLoop.thisTrialN,trialLoop.thisN,trialLoop.thisIndex,choice_trialLoop.thisRepN,choice_trialLoop.thisTrialN,choice_trialLoop.thisN,choice_trialLoop.thisIndex,contingency_trialLoop.thisRepN,contingency_trialLoop.thisTrialN,contingency_trialLoop.thisN,contingency_trialLoop.thisIndex,run,event,duration,globalClock_t,routineClock_t,trial,nResp_untilRnf,resp,selected_coin,wasRnf,participant,task_ordering,hand,date,expName,n_repeat_training,credits_per_rnf,cost_response,min_resp_bet_rnf,max_resp_bet_rnf,mean_resp_bet_rnf,sigma_resp_bet_rnf,min_ITI,max_ITI,min_trial_duration,max_trial_duration,schedule,frameRate,Unnamed: 65
6.0,0.0,resp1,stim/right_resp_img.png,"[-0.5, 0]",right,stim/gold_coin.png,silver,,,,,training,,,gold,val,,,,,0.0,0.0,0.0,0.0,0.0,0.0,0.0,0.0,,,,,,,,,0.0,instr_before_block,6.0,0.0043887186329811,,,,,,,230.0,2.0,right,2023_Aug_31_1118,habits_v_MRI,5.0,40.0,1.0,5.0,30.0,15.0,5.0,15.0,30.0,30.0,60.0,RR,60.03487545423543,
6.0,0.0,resp1,stim/right_resp_img.png,"[-0.5, 0]",right,stim/gold_coin.png,silver,,,,,training,,,gold,val,,,,,0.0,0.0,0.0,0.0,0.0,0.0,0.0,0.0,,,,,,,,,0.0,training_period_start,37.5,6.044410043396056,0.0,0.0,22.0,,,,230.0,2.0,right,2023_Aug_31_1118,habits_v_MRI,5.0,40.0,1.0,5.0,30.0,15.0,5.0,15.0,30.0,30.0,60.0,RR,60.03487545423543,
6.0,0.0,resp1,stim/right_resp_img.png,"[-0.5, 0]",right,stim/gold_coin.png,silver,,,,,training,,,gold,val,,,,,0.0,0.0,0.0,0.0,0.0,0.0,0.0,0.0,,,,,,,,,0.0,training_resp,,7.006792162079364,0.9821624364703894,0.0,,right,gold,0.0,230.0,2.0,right,2023_Aug_31_1118,habits_v_MRI,5.0,40.0,1.0,5.0,30.0,15.0,5.0,15.0,30.0,30.0,60.0,RR,60.03487545423543,
6.0,0.0,resp1,stim/right_resp_img.png,"[-0.5, 0]",right,stim/gold_coin.png,silver,,,,,training,,,gold,val,,,,,0.0,0.0,0.0,0.0,0.0,0.0,0.0,0.0,,,,,,,,,0.0,training_resp,,8.723148276563734,2.698697137646377,0.0,,right,gold,0.0,230.0,2.0,right,2023_Aug_31_1118,habits_v_MRI,5.0,40.0,1.0,5.0,30.0,15.0,5.0,15.0,30.0,30.0,60.0,RR,60.03487545423543,
6.0,0.0,resp1,stim/right_resp_img.png,"[-0.5, 0]",right,stim/gold_coin.png,silver,,,,,training,,,gold,val,,,,,0.0,0.0,0.0,0.0,0.0,0.0,0.0,0.0,,,,,,,,,0.0,training_resp,,9.439750130986797,3.415340633131564,0.0,,right,gold,0.0,230.0,2.0,right,2023_Aug_31_1118,habits_v_MRI,5.0,40.0,1.0,5.0,30.0,15.0,5.0,15.0,30.0,30.0,60.0,RR,60.03487545423543,
6.0,0.0,resp1,stim/right_resp_img.png,"[-0.5, 0]",right,stim/gold_coin.png,silver,,,,,training,,,gold,val,,,,,0.0,0.0,0.0,0.0,0.0,0.0,0.0,0.0,,,,,,,,,0.0,training_resp,,9.58966155606322,3.5653071883134544,0.0,,right,gold,0.0,230.0,2.0,right,2023_Aug_31_1118,habits_v_MRI,5.0,40.0,1.0,5.0,30.0,15.0,5.0,15.0,30.0,30.0,60.0,RR,60.03487545423543,
6.0,0.0,resp1,stim/right_resp_img.png,"[-0.5, 0]",right,stim/gold_coin.png,silver,,,,,training,,,gold,val,,,,,0.0,0.0,0.0,0.0,0.0,0.0,0.0,0.0,,,,,,,,,0.0,training_resp,,10.139586822362617,4.115269403671846,0.0,,right,gold,0.0,230.0,2.0,right,2023_Aug_31_1118,habits_v_MRI,5.0,40.0,1.0,5.0,30.0,15.0,5.0,15.0,30.0,30.0,60.0,RR,60.03487545423543,
6.0,0.0,resp1,stim/right_resp_img.png,"[-0.5, 0]",right,stim/gold_coin.png,silver,,,,,training,,,gold,val,,,,,0.0,0.0,0.0,0.0,0.0,0.0,0.0,0.0,,,,,,,,,0.0,training_resp,,10.823014937574044,4.798597815213725,0.0,,right,gold,0.0,230.0,2.0,right,2023_Aug_31_1118,habits_v_MRI,5.0,40.0,1.0,5.0,30.0,15.0,5.0,15.0,30.0,30.0,60.0,RR,60.03487545423543,
6.0,0.0,resp1,stim/right_resp_img.png,"[-0.5, 0]",right,stim/gold_coin.png,silver,,,,,training,,,gold,val,,,,,0.0,0.0,0.0,0.0,0.0,0.0,0.0,0.0,,,,,,,,,0.0,training_resp,,11.30614933767356,5.281805526930839,0.0,,right,gold,0.0,230.0,2.0,right,2023_Aug_31_1118,habits_v_MRI,5.0,40.0,1.0,5.0,30.0,15.0,5.0,15.0,30.0,30.0,60.0,RR,60.03487545423543,
6.0,0.0,resp1,stim/right_resp_img.png,"[-0.5, 0]",right,stim/gold_coin.png,silver,,,,,training,,,gold,val,,,,,0.0,0.0,0.0,0.0,0.0,0.0,0.0,0.0,,,,,,,,,0.0,training_resp,,11.72296265186742,5.698516498086974,0.0,,right,gold,0.0,230.0,2.0,right,2023_Aug_31_1118,habits_v_MRI,5.0,40.0,1.0,5.0,30.0,15.0,5.0,15.0,30.0,30.0,60.0,RR,60.03487545423543,
6.0,0.0,resp1,stim/right_resp_img.png,"[-0.5, 0]",right,stim/gold_coin.png,silver,,,,,training,,,gold,val,,,,,0.0,0.0,0.0,0.0,0.0,0.0,0.0,0.0,,,,,,,,,0.0,training_resp,,12.172815398313103,6.148463083431125,0.0,,right,gold,0.0,230.0,2.0,right,2023_Aug_31_1118,habits_v_MRI,5.0,40.0,1.0,5.0,30.0,15.0,5.0,15.0,30.0,30.0,60.0,RR,60.03487545423543,
6.0,0.0,resp1,stim/right_resp_img.png,"[-0.5, 0]",right,stim/gold_coin.png,silver,,,,,training,,,gold,val,,,,,0.0,0.0,0.0,0.0,0.0,0.0,0.0,0.0,,,,,,,,,0.0,training_resp,,12.606188016943634,6.581801685504615,0.0,,right,gold,0.0,230.0,2.0,right,2023_Aug_31_1118,habits_v_MRI,5.0,40.0,1.0,5.0,30.0,15.0,5.0,15.0,30.0,30.0,60.0,RR,60.03487545423543,
6.0,0.0,resp1,stim/right_resp_img.png,"[-0.5, 0]",right,stim/gold_coin.png,silver,,,,,training,,,gold,val,,,,,0.0,0.0,0.0,0.0,0.0,0.0,0.0,0.0,,,,,,,,,0.0,training_resp,,13.056082990951836,7.031731262337416,0.0,,right,gold,0.0,230.0,2.0,right,2023_Aug_31_1118,habits_v_MRI,5.0,40.0,1.0,5.0,30.0,15.0,5.0,15.0,30.0,30.0,60.0,RR,60.03487545423543,
6.0,0.0,resp1,stim/right_resp_img.png,"[-0.5, 0]",right,stim/gold_coin.png,silver,,,,,training,,,gold,val,,,,,0.0,0.0,0.0,0.0,0.0,0.0,0.0,0.0,,,,,,,,,0.0,training_resp,,13.522807348752394,7.498409287538379,0.0,,right,gold,0.0,230.0,2.0,right,2023_Aug_31_1118,habits_v_MRI,5.0,40.0,1.0,5.0,30.0,15.0,5.0,15.0,30.0,30.0,60.0,RR,60.03487545423543,
6.0,0.0,resp1,stim/right_resp_img.png,"[-0.5, 0]",right,stim/gold_coin.png,silver,,,,,training,,,gold,val,,,,,0.0,0.0,0.0,0.0,0.0,0.0,0.0,0.0,,,,,,,,,0.0,training_resp,,14.006070190807804,7.981690897140652,0.0,,right,gold,0.0,230.0,2.0,right,2023_Aug_31_1118,habits_v_MRI,5.0,40.0,1.0,5.0,30.0,15.0,5.0,15.0,30.0,30.0,60.0,RR,60.03487545423543,
6.0,0.0,resp1,stim/right_resp_img.png,"[-0.5, 0]",right,stim/gold_coin.png,silver,,,,,training,,,gold,val,,,,,0.0,0.0,0.0,0.0,0.0,0.0,0.0,0.0,,,,,,,,,0.0,training_resp,,14.47281097038649,8.448361884336919,0.0,,right,gold,0.0,230.0,2.0,right,2023_Aug_31_1118,habits_v_MRI,5.0,40.0,1.0,5.0,30.0,15.0,5.0,15.0,30.0,30.0,60.0,RR,60.03487545423543,
6.0,0.0,resp1,stim/right_resp_img.png,"[-0.5, 0]",right,stim/gold_coin.png,silver,,,,,training,,,gold,val,,,,,0.0,0.0,0.0,0.0,0.0,0.0,0.0,0.0,,,,,,,,,0.0,training_resp,,14.906029048375784,8.881648875074461,0.0,,right,gold,0.0,230.0,2.0,right,2023_Aug_31_1118,habits_v_MRI,5.0,40.0,1.0,5.0,30.0,15.0,5.0,15.0,30.0,30.0,60.0,RR,60.03487545423543,
6.0,0.0,resp1,stim/right_resp_img.png,"[-0.5, 0]",right,stim/gold_coin.png,silver,,,,,training,,,gold,val,,,,,0.0,0.0,0.0,0.0,0.0,0.0,0.0,0.0,,,,,,,,,0.0,training_resp,,15.33932131738402,9.314928534440696,0.0,,right,gold,0.0,230.0,2.0,right,2023_Aug_31_1118,habits_v_MRI,5.0,40.0,1.0,5.0,30.0,15.0,5.0,15.0,30.0,30.0,60.0,RR,60.03487545423543,
6.0,0.0,resp1,stim/right_resp_img.png,"[-0.5, 0]",right,stim/gold_coin.png,silver,,,,,training,,,gold,val,,,,,0.0,0.0,0.0,0.0,0.0,0.0,0.0,0.0,,,,,,,,,0.0,training_resp,,15.78926731622778,9.764864269644022,0.0,,right,gold,0.0,230.0,2.0,right,2023_Aug_31_1118,habits_v_MRI,5.0,40.0,1.0,5.0,30.0,15.0,5.0,15.0,30.0,30.0,60.0,RR,60.03487545423543,
6.0,0.0,resp1,stim/right_resp_img.png,"[-0.5, 0]",right,stim/gold_coin.png,silver,,,,,training,,,gold,val,,,,,0.0,0.0,0.0,0.0,0.0,0.0,0.0,0.0,,,,,,,,,0.0,training_resp,,16.222754007438198,10.198226331267506,0.0,,right,gold,0.0,230.0,2.0,right,2023_Aug_31_1118,habits_v_MRI,5.0,40.0,1.0,5.0,30.0,15.0,5.0,15.0,30.0,30.0,60.0,RR,60.03487545423543,
6.0,0.0,resp1,stim/right_resp_img.png,"[-0.5, 0]",right,stim/gold_coin.png,silver,,,,,training,,,gold,val,,,,,0.0,0.0,0.0,0.0,0.0,0.0,0.0,0.0,,,,,,,,,0.0,training_resp,,16.672680652001873,10.64819696266204,0.0,,right,gold,0.0,230.0,2.0,right,2023_Aug_31_1118,habits_v_MRI,5.0,40.0,1.0,5.0,30.0,15.0,5.0,15.0,30.0,30.0,60.0,RR,60.03487545423543,
6.0,0.0,resp1,stim/right_resp_img.png,"[-0.5, 0]",right,stim/gold_coin.png,silver,,,,,training,,,gold,val,,,,,0.0,0.0,0.0,0.0,0.0,0.0,0.0,0.0,,,,,,,,,0.0,training_resp,,17.205969196744263,11.181508380919697,0.0,,right,gold,0.0,230.0,2.0,right,2023_Aug_31_1118,habits_v_MRI,5.0,40.0,1.0,5.0,30.0,15.0,5.0,15.0,30.0,30.0,60.0,RR,60.03487545423543,
6.0,0.0,resp1,stim/right_resp_img.png,"[-0.5, 0]",right,stim/gold_coin.png,silver,,,,,training,,,gold,val,,,,,0.0,0.0,0.0,0.0,0.0,0.0,0.0,0.0,,,,,,,,,0.0,training_resp,,18.206012303940952,12.18141512852162,0.0,,right,gold,0.0,230.0,2.0,right,2023_Aug_31_1118,habits_v_MRI,5.0,40.0,1.0,5.0,30.0,15.0,5.0,15.0,30.0,30.0,60.0,RR,60.03487545423543,
6.0,0.0,resp1,stim/right_resp_img.png,"[-0.5, 0]",right,stim/gold_coin.png,silver,,,,,training,,,gold,val,,,,,0.0,0.0,0.0,0.0,0.0,0.0,0.0,0.0,,,,,,,,,0.0,training_resp,,18.67251144908369,12.648062069667503,0.0,21.0,right,gold,1.0,230.0,2.0,right,2023_Aug_31_1118,habits_v_MRI,5.0,40.0,1.0,5.0,30.0,15.0,5.0,15.0,30.0,30.0,60.0,RR,60.03487545423543,
6.0,0.0,resp1,stim/right_resp_img.png,"[-0.5, 0]",right,stim/gold_coin.png,silver,,,,,training,,,gold,val,,,,,0.0,0.0,0.0,0.0,0.0,0.0,0.0,0.0,,,,,,,,,0.0,training_resp,,19.18912603030913,13.164730314863846,0.0,,right,gold,0.0,230.0,2.0,right,2023_Aug_31_1118,habits_v_MRI,5.0,40.0,1.0,5.0,30.0,15.0,5.0,15.0,30.0,30.0,60.0,RR,60.03487545423543,
6.0,0.0,resp1,stim/right_resp_img.png,"[-0.5, 0]",right,stim/gold_coin.png,silver,,,,,training,,,gold,val,,,,,0.0,0.0,0.0,0.0,0.0,0.0,0.0,0.0,,,,,,,,,0.0,training_resp,,20.17280190903693,14.14795283554122,0.0,,right,gold,0.0,230.0,2.0,right,2023_Aug_31_1118,habits_v_MRI,5.0,40.0,1.0,5.0,30.0,15.0,5.0,15.0,30.0,30.0,60.0,RR,60.03487545423543,
6.0,0.0,resp1,stim/right_resp_img.png,"[-0.5, 0]",right,stim/gold_coin.png,silver,,,,,training,,,gold,val,,,,,0.0,0.0,0.0,0.0,0.0,0.0,0.0,0.0,,,,,,,,,0.0,training_resp,,20.62230833224021,14.597910270793363,0.0,,right,gold,0.0,230.0,2.0,right,2023_Aug_31_1118,habits_v_MRI,5.0,40.0,1.0,5.0,30.0,15.0,5.0,15.0,30.0,30.0,60.0,RR,60.03487545423543,
6.0,0.0,resp1,stim/right_resp_img.png,"[-0.5, 0]",right,stim/gold_coin.png,silver,,,,,training,,,gold,val,,,,,0.0,0.0,0.0,0.0,0.0,0.0,0.0,0.0,,,,,,,,,0.0,training_resp,,21.03907971200533,15.01461801631376,0.0,,right,gold,0.0,230.0,2.0,right,2023_Aug_31_1118,habits_v_MRI,5.0,40.0,1.0,5.0,30.0,15.0,5.0,15.0,30.0,30.0,60.0,RR,60.03487545423543,
6.0,0.0,resp1,stim/right_resp_img.png,"[-0.5, 0]",right,stim/gold_coin.png,silver,,,,,training,,,gold,val,,,,,0.0,0.0,0.0,0.0,0.0,0.0,0.0,0.0,,,,,,,,,0.0,training_resp,,21.42228762898594,15.397898951545358,0.0,,right,gold,0.0,230.0,2.0,right,2023_Aug_31_1118,habits_v_MRI,5.0,40.0,1.0,5.0,30.0,15.0,5.0,15.0,30.0,30.0,60.0,RR,60.03487545423543,
6.0,0.0,resp1,stim/right_resp_img.png,"[-0.5, 0]",right,stim/gold_coin.png,silver,,,,,training,,,gold,val,,,,,0.0,0.0,0.0,0.0,0.0,0.0,0.0,0.0,,,,,,,,,0.0,training_resp,,21.772359049180523,15.747895300621169,0.0,,right,gold,0.0,230.0,2.0,right,2023_Aug_31_1118,habits_v_MRI,5.0,40.0,1.0,5.0,30.0,15.0,5.0,15.0,30.0,30.0,60.0,RR,60.03487545423543,
6.0,0.0,resp1,stim/right_resp_img.png,"[-0.5, 0]",right,stim/gold_coin.png,silver,,,,,training,,,gold,val,,,,,0.0,0.0,0.0,0.0,0.0,0.0,0.0,0.0,,,,,,,,,0.0,training_resp,,22.072321777464825,16.04788207518868,0.0,,right,gold,0.0,230.0,2.0,right,2023_Aug_31_1118,habits_v_MRI,5.0,40.0,1.0,5.0,30.0,15.0,5.0,15.0,30.0,30.0,60.0,RR,60.03487545423543,
6.0,0.0,resp1,stim/right_resp_img.png,"[-0.5, 0]",right,stim/gold_coin.png,silver,,,,,training,,,gold,val,,,,,0.0,0.0,0.0,0.0,0.0,0.0,0.0,0.0,,,,,,,,,0.0,training_resp,,22.372268084203824,16.347830141428858,0.0,,right,gold,0.0,230.0,2.0,right,2023_Aug_31_1118,habits_v_MRI,5.0,40.0,1.0,5.0,30.0,15.0,5.0,15.0,30.0,30.0,60.0,RR,60.03487545423543,
6.0,0.0,resp1,stim/right_resp_img.png,"[-0.5, 0]",right,stim/gold_coin.png,silver,,,,,training,,,gold,val,,,,,0.0,0.0,0.0,0.0,0.0,0.0,0.0,0.0,,,,,,,,,0.0,training_resp,,22.68897779448889,16.664482961874455,0.0,,right,gold,0.0,230.0,2.0,right,2023_Aug_31_1118,habits_v_MRI,5.0,40.0,1.0,5.0,30.0,15.0,5.0,15.0,30.0,30.0,60.0,RR,60.03487545423543,
6.0,0.0,resp1,stim/right_resp_img.png,"[-0.5, 0]",right,stim/gold_coin.png,silver,,,,,training,,,gold,val,,,,,0.0,0.0,0.0,0.0,0.0,0.0,0.0,0.0,,,,,,,,,0.0,training_resp,,22.98896192992106,16.964458593167365,0.0,,right,gold,0.0,230.0,2.0,right,2023_Aug_31_1118,habits_v_MRI,5.0,40.0,1.0,5.0,30.0,15.0,5.0,15.0,30.0,30.0,60.0,RR,60.03487545423543,
6.0,0.0,resp1,stim/right_resp_img.png,"[-0.5, 0]",right,stim/gold_coin.png,silver,,,,,training,,,gold,val,,,,,0.0,0.0,0.0,0.0,0.0,0.0,0.0,0.0,,,,,,,,,0.0,training_resp,,23.2889358017128,17.264442142099142,0.0,,right,gold,0.0,230.0,2.0,right,2023_Aug_31_1118,habits_v_MRI,5.0,40.0,1.0,5.0,30.0,15.0,5.0,15.0,30.0,30.0,60.0,RR,60.03487545423543,
6.0,0.0,resp1,stim/right_resp_img.png,"[-0.5, 0]",right,stim/gold_coin.png,silver,,,,,training,,,gold,val,,,,,0.0,0.0,0.0,0.0,0.0,0.0,0.0,0.0,,,,,,,,,0.0,training_resp,,23.622074028709903,17.59766423748806,0.0,,right,gold,0.0,230.0,2.0,right,2023_Aug_31_1118,habits_v_MRI,5.0,40.0,1.0,5.0,30.0,15.0,5.0,15.0,30.0,30.0,60.0,RR,60.03487545423543,
6.0,0.0,resp1,stim/right_resp_img.png,"[-0.5, 0]",right,stim/gold_coin.png,silver,,,,,training,,,gold,val,,,,,0.0,0.0,0.0,0.0,0.0,0.0,0.0,0.0,,,,,,,,,0.0,training_resp,,23.93894003913738,17.9143519543577,0.0,,right,gold,0.0,230.0,2.0,right,2023_Aug_31_1118,habits_v_MRI,5.0,40.0,1.0,5.0,30.0,15.0,5.0,15.0,30.0,30.0,60.0,RR,60.03487545423543,
6.0,0.0,resp1,stim/right_resp_img.png,"[-0.5, 0]",right,stim/gold_coin.png,silver,,,,,training,,,gold,val,,,,,0.0,0.0,0.0,0.0,0.0,0.0,0.0,0.0,,,,,,,,,0.0,training_resp,,24.27210729755461,18.24772331188433,0.0,,right,gold,0.0,230.0,2.0,right,2023_Aug_31_1118,habits_v_MRI,5.0,40.0,1.0,5.0,30.0,15.0,5.0,15.0,30.0,30.0,60.0,RR,60.03487545423543,
6.0,0.0,resp1,stim/right_resp_img.png,"[-0.5, 0]",right,stim/gold_coin.png,silver,,,,,training,,,gold,val,,,,,0.0,0.0,0.0,0.0,0.0,0.0,0.0,0.0,,,,,,,,,0.0,training_resp,,24.605467804940417,18.581028395798057,0.0,,right,gold,0.0,230.0,2.0,right,2023_Aug_31_1118,habits_v_MRI,5.0,40.0,1.0,5.0,30.0,15.0,5.0,15.0,30.0,30.0,60.0,RR,60.03487545423543,
6.0,0.0,resp1,stim/right_resp_img.png,"[-0.5, 0]",right,stim/gold_coin.png,silver,,,,,training,,,gold,val,,,,,0.0,0.0,0.0,0.0,0.0,0.0,0.0,0.0,,,,,,,,,0.0,training_resp,,24.955317824380472,18.930946154985577,0.0,,right,gold,0.0,230.0,2.0,right,2023_Aug_31_1118,habits_v_MRI,5.0,40.0,1.0,5.0,30.0,15.0,5.0,15.0,30.0,30.0,60.0,RR,60.03487545423543,
6.0,0.0,resp1,stim/right_resp_img.png,"[-0.5, 0]",right,stim/gold_coin.png,silver,,,,,training,,,gold,val,,,,,0.0,0.0,0.0,0.0,0.0,0.0,0.0,0.0,,,,,,,,,0.0,training_resp,,25.27208764990792,19.247663782909516,0.0,,right,gold,0.0,230.0,2.0,right,2023_Aug_31_1118,habits_v_MRI,5.0,40.0,1.0,5.0,30.0,15.0,5.0,15.0,30.0,30.0,60.0,RR,60.03487545423543,
6.0,0.0,resp1,stim/right_resp_img.png,"[-0.5, 0]",right,stim/gold_coin.png,silver,,,,,training,,,gold,val,,,,,0.0,0.0,0.0,0.0,0.0,0.0,0.0,0.0,,,,,,,,,0.0,training_resp,,25.588784164283425,19.564286985667422,0.0,,right,gold,0.0,230.0,2.0,right,2023_Aug_31_1118,habits_v_MRI,5.0,40.0,1.0,5.0,30.0,15.0,5.0,15.0,30.0,30.0,60.0,RR,60.03487545423543,
6.0,0.0,resp1,stim/right_resp_img.png,"[-0.5, 0]",right,stim/gold_coin.png,silver,,,,,training,,,gold,val,,,,,0.0,0.0,0.0,0.0,0.0,0.0,0.0,0.0,,,,,,,,,0.0,training_resp,,25.92203059908934,19.897588550811637,0.0,,right,gold,0.0,230.0,2.0,right,2023_Aug_31_1118,habits_v_MRI,5.0,40.0,1.0,5.0,30.0,15.0,5.0,15.0,30.0,30.0,60.0,RR,60.03487545423543,
6.0,0.0,resp1,stim/right_resp_img.png,"[-0.5, 0]",right,stim/gold_coin.png,silver,,,,,training,,,gold,val,,,,,0.0,0.0,0.0,0.0,0.0,0.0,0.0,0.0,,,,,,,,,0.0,training_resp,,26.25537175219506,20.23090595100075,0.0,,right,gold,0.0,230.0,2.0,right,2023_Aug_31_1118,habits_v_MRI,5.0,40.0,1.0,5.0,30.0,15.0,5.0,15.0,30.0,30.0,60.0,RR,60.03487545423543,
6.0,0.0,resp1,stim/right_resp_img.png,"[-0.5, 0]",right,stim/gold_coin.png,silver,,,,,training,,,gold,val,,,,,0.0,0.0,0.0,0.0,0.0,0.0,0.0,0.0,,,,,,,,,0.0,training_resp,,26.58872815431096,20.564204583643004,0.0,10.0,right,gold,1.0,230.0,2.0,right,2023_Aug_31_1118,habits_v_MRI,5.0,40.0,1.0,5.0,30.0,15.0,5.0,15.0,30.0,30.0,60.0,RR,60.03487545423543,
6.0,0.0,resp1,stim/right_resp_img.png,"[-0.5, 0]",right,stim/gold_coin.png,silver,,,,,training,,,gold,val,,,,,0.0,0.0,0.0,0.0,0.0,0.0,0.0,0.0,,,,,,,,,0.0,training_resp,,27.238551165675744,21.214136975817382,0.0,,right,gold,0.0,230.0,2.0,right,2023_Aug_31_1118,habits_v_MRI,5.0,40.0,1.0,5.0,30.0,15.0,5.0,15.0,30.0,30.0,60.0,RR,60.03487545423543,
6.0,0.0,resp1,stim/right_resp_img.png,"[-0.5, 0]",right,stim/gold_coin.png,silver,,,,,training,,,gold,val,,,,,0.0,0.0,0.0,0.0,0.0,0.0,0.0,0.0,,,,,,,,,0.0,training_resp,,27.55532744270749,21.5308739580214,0.0,,right,gold,0.0,230.0,2.0,right,2023_Aug_31_1118,habits_v_MRI,5.0,40.0,1.0,5.0,30.0,15.0,5.0,15.0,30.0,30.0,60.0,RR,60.03487545423543,
6.0,0.0,resp1,stim/right_resp_img.png,"[-0.5, 0]",right,stim/gold_coin.png,silver,,,,,training,,,gold,val,,,,,0.0,0.0,0.0,0.0,0.0,0.0,0.0,0.0,,,,,,,,,0.0,training_resp,,27.85514824022539,21.83072906523012,0.0,,right,gold,0.0,230.0,2.0,right,2023_Aug_31_1118,habits_v_MRI,5.0,40.0,1.0,5.0,30.0,15.0,5.0,15.0,30.0,30.0,60.0,RR,60.03487545423543,
6.0,0.0,resp1,stim/right_resp_img.png,"[-0.5, 0]",right,stim/gold_coin.png,silver,,,,,training,,,gold,val,,,,,0.0,0.0,0.0,0.0,0.0,0.0,0.0,0.0,,,,,,,,,0.0,training_resp,,28.15518574626185,22.130748976487663,0.0,,right,gold,0.0,230.0,2.0,right,2023_Aug_31_1118,habits_v_MRI,5.0,40.0,1.0,5.0,30.0,15.0,5.0,15.0,30.0,30.0,60.0,RR,60.03487545423543,
6.0,0.0,resp1,stim/right_resp_img.png,"[-0.5, 0]",right,stim/gold_coin.png,silver,,,,,training,,,gold,val,,,,,0.0,0.0,0.0,0.0,0.0,0.0,0.0,0.0,,,,,,,,,0.0,training_resp,,28.45514290314168,22.430724607780576,0.0,,right,gold,0.0,230.0,2.0,right,2023_Aug_31_1118,habits_v_MRI,5.0,40.0,1.0,5.0,30.0,15.0,5.0,15.0,30.0,30.0,60.0,RR,60.03487545423543,
6.0,0.0,resp1,stim/right_resp_img.png,"[-0.5, 0]",right,stim/gold_coin.png,silver,,,,,training,,,gold,val,,,,,0.0,0.0,0.0,0.0,0.0,0.0,0.0,0.0,,,,,,,,,0.0,training_resp,,28.755132316844534,22.73073249612935,0.0,,right,gold,0.0,230.0,2.0,right,2023_Aug_31_1118,habits_v_MRI,5.0,40.0,1.0,5.0,30.0,15.0,5.0,15.0,30.0,30.0,60.0,RR,60.03487545423543,
6.0,0.0,resp1,stim/right_resp_img.png,"[-0.5, 0]",right,stim/gold_coin.png,silver,,,,,training,,,gold,val,,,,,0.0,0.0,0.0,0.0,0.0,0.0,0.0,0.0,,,,,,,,,0.0,training_resp,,29.088440626626834,23.064053708687425,0.0,,right,gold,0.0,230.0,2.0,right,2023_Aug_31_1118,habits_v_MRI,5.0,40.0,1.0,5.0,30.0,15.0,5.0,15.0,30.0,30.0,60.0,RR,60.03487545423543,
6.0,0.0,resp1,stim/right_resp_img.png,"[-0.5, 0]",right,stim/gold_coin.png,silver,,,,,training,,,gold,val,,,,,0.0,0.0,0.0,0.0,0.0,0.0,0.0,0.0,,,,,,,,,0.0,training_resp,,29.421842188574374,23.397408937569708,0.0,,right,gold,0.0,230.0,2.0,right,2023_Aug_31_1118,habits_v_MRI,5.0,40.0,1.0,5.0,30.0,15.0,5.0,15.0,30.0,30.0,60.0,RR,60.03487545423543,
6.0,0.0,resp1,stim/right_resp_img.png,"[-0.5, 0]",right,stim/gold_coin.png,silver,,,,,training,,,gold,val,,,,,0.0,0.0,0.0,0.0,0.0,0.0,0.0,0.0,,,,,,,,,0.0,training_resp,,30.02192775765434,23.99736577179283,0.0,,right,gold,0.0,230.0,2.0,right,2023_Aug_31_1118,habits_v_MRI,5.0,40.0,1.0,5.0,30.0,15.0,5.0,15.0,30.0,30.0,60.0,RR,60.03487545423543,
6.0,0.0,resp1,stim/right_resp_img.png,"[-0.5, 0]",right,stim/gold_coin.png,silver,,,,,training,,,gold,val,,,,,0.0,0.0,0.0,0.0,0.0,0.0,0.0,0.0,,,,,,,,,0.0,training_resp,,30.488423090428117,24.464009780436754,0.0,15.0,right,gold,1.0,230.0,2.0,right,2023_Aug_31_1118,habits_v_MRI,5.0,40.0,1.0,5.0,30.0,15.0,5.0,15.0,30.0,30.0,60.0,RR,60.03487545423543,
6.0,0.0,resp1,stim/right_resp_img.png,"[-0.5, 0]",right,stim/gold_coin.png,silver,,,,,training,,,gold,val,,,,,0.0,0.0,0.0,0.0,0.0,0.0,0.0,0.0,,,,,,,,,0.0,training_resp,,31.13844199012965,25.11398322694004,0.0,,right,gold,0.0,230.0,2.0,right,2023_Aug_31_1118,habits_v_MRI,5.0,40.0,1.0,5.0,30.0,15.0,5.0,15.0,30.0,30.0,60.0,RR,60.03487545423543,
6.0,0.0,resp1,stim/right_resp_img.png,"[-0.5, 0]",right,stim/gold_coin.png,silver,,,,,training,,,gold,val,,,,,0.0,0.0,0.0,0.0,0.0,0.0,0.0,0.0,,,,,,,,,0.0,training_resp,,31.455006543779746,25.43058678228408,0.0,,right,gold,0.0,230.0,2.0,right,2023_Aug_31_1118,habits_v_MRI,5.0,40.0,1.0,5.0,30.0,15.0,5.0,15.0,30.0,30.0,60.0,RR,60.03487545423543,
6.0,0.0,resp1,stim/right_resp_img.png,"[-0.5, 0]",right,stim/gold_coin.png,silver,,,,,training,,,gold,val,,,,,0.0,0.0,0.0,0.0,0.0,0.0,0.0,0.0,,,,,,,,,0.0,training_resp,,31.738299120683223,25.71389196882956,0.0,,right,gold,0.0,230.0,2.0,right,2023_Aug_31_1118,habits_v_MRI,5.0,40.0,1.0,5.0,30.0,15.0,5.0,15.0,30.0,30.0,60.0,RR,60.03487545423543,
6.0,0.0,resp1,stim/right_resp_img.png,"[-0.5, 0]",right,stim/gold_coin.png,silver,,,,,training,,,gold,val,,,,,0.0,0.0,0.0,0.0,0.0,0.0,0.0,0.0,,,,,,,,,0.0,training_resp,,32.055316739249974,26.030902842758223,0.0,,right,gold,0.0,230.0,2.0,right,2023_Aug_31_1118,habits_v_MRI,5.0,40.0,1.0,5.0,30.0,15.0,5.0,15.0,30.0,30.0,60.0,RR,60.03487545423543,
6.0,0.0,resp1,stim/right_resp_img.png,"[-0.5, 0]",right,stim/gold_coin.png,silver,,,,,training,,,gold,val,,,,,0.0,0.0,0.0,0.0,0.0,0.0,0.0,0.0,,,,,,,,,0.0,training_resp,,32.35496657434851,26.3305315640755,0.0,,right,gold,0.0,230.0,2.0,right,2023_Aug_31_1118,habits_v_MRI,5.0,40.0,1.0,5.0,30.0,15.0,5.0,15.0,30.0,30.0,60.0,RR,60.03487545423543,
6.0,0.0,resp1,stim/right_resp_img.png,"[-0.5, 0]",right,stim/gold_coin.png,silver,,,,,training,,,gold,val,,,,,0.0,0.0,0.0,0.0,0.0,0.0,0.0,0.0,,,,,,,,,0.0,training_resp,,32.704987262841314,26.680490084458143,0.0,,right,gold,0.0,230.0,2.0,right,2023_Aug_31_1118,habits_v_MRI,5.0,40.0,1.0,5.0,30.0,15.0,5.0,15.0,30.0,30.0,60.0,RR,60.03487545423543,
6.0,0.0,resp1,stim/right_resp_img.png,"[-0.5, 0]",right,stim/gold_coin.png,silver,,,,,training,,,gold,val,,,,,0.0,0.0,0.0,0.0,0.0,0.0,0.0,0.0,,,,,,,,,0.0,training_resp,,33.03821287723258,27.01383006456308,0.0,,right,gold,0.0,230.0,2.0,right,2023_Aug_31_1118,habits_v_MRI,5.0,40.0,1.0,5.0,30.0,15.0,5.0,15.0,30.0,30.0,60.0,RR,60.03487545423543,
6.0,0.0,resp1,stim/right_resp_img.png,"[-0.5, 0]",right,stim/gold_coin.png,silver,,,,,training,,,gold,val,,,,,0.0,0.0,0.0,0.0,0.0,0.0,0.0,0.0,,,,,,,,,0.0,training_resp,,33.38814852433279,27.36376072652638,0.0,,right,gold,0.0,230.0,2.0,right,2023_Aug_31_1118,habits_v_MRI,5.0,40.0,1.0,5.0,30.0,15.0,5.0,15.0,30.0,30.0,60.0,RR,60.03487545423543,
6.0,0.0,resp1,stim/right_resp_img.png,"[-0.5, 0]",right,stim/gold_coin.png,silver,,,,,training,,,gold,val,,,,,0.0,0.0,0.0,0.0,0.0,0.0,0.0,0.0,,,,,,,,,0.0,training_resp,,33.75516955903731,27.730441889259964,0.0,,right,gold,0.0,230.0,2.0,right,2023_Aug_31_1118,habits_v_MRI,5.0,40.0,1.0,5.0,30.0,15.0,5.0,15.0,30.0,30.0,60.0,RR,60.03487545423543,
6.0,0.0,resp1,stim/right_resp_img.png,"[-0.5, 0]",right,stim/gold_coin.png,silver,,,,,training,,,gold,val,,,,,0.0,0.0,0.0,0.0,0.0,0.0,0.0,0.0,,,,,,,,,0.0,training_resp,,34.12143196677789,28.09700897941366,0.0,,right,gold,0.0,230.0,2.0,right,2023_Aug_31_1118,habits_v_MRI,5.0,40.0,1.0,5.0,30.0,15.0,5.0,15.0,30.0,30.0,60.0,RR,60.03487545423543,
6.0,0.0,resp1,stim/right_resp_img.png,"[-0.5, 0]",right,stim/gold_coin.png,silver,,,,,training,,,gold,val,,,,,0.0,0.0,0.0,0.0,0.0,0.0,0.0,0.0,,,,,,,,,0.0,training_resp,,34.454909772612154,28.43039206694812,0.0,,right,gold,0.0,230.0,2.0,right,2023_Aug_31_1118,habits_v_MRI,5.0,40.0,1.0,5.0,30.0,15.0,5.0,15.0,30.0,30.0,60.0,RR,60.03487545423543,
6.0,0.0,resp1,stim/right_resp_img.png,"[-0.5, 0]",right,stim/gold_coin.png,silver,,,,,training,,,gold,val,,,,,0.0,0.0,0.0,0.0,0.0,0.0,0.0,0.0,,,,,,,,,0.0,training_resp,,34.788167937193066,28.76373116741888,0.0,,right,gold,0.0,230.0,2.0,right,2023_Aug_31_1118,habits_v_MRI,5.0,40.0,1.0,5.0,30.0,15.0,5.0,15.0,30.0,30.0,60.0,RR,60.03487545423543,
6.0,0.0,resp1,stim/right_resp_img.png,"[-0.5, 0]",right,stim/gold_coin.png,silver,,,,,training,,,gold,val,,,,,0.0,0.0,0.0,0.0,0.0,0.0,0.0,0.0,,,,,,,,,0.0,training_resp,,35.15488047734834,29.13034840254113,0.0,,right,gold,0.0,230.0,2.0,right,2023_Aug_31_1118,habits_v_MRI,5.0,40.0,1.0,5.0,30.0,15.0,5.0,15.0,30.0,30.0,60.0,RR,60.03487545423543,
6.0,0.0,resp1,stim/right_resp_img.png,"[-0.5, 0]",right,stim/gold_coin.png,silver,,,,,training,,,gold,val,,,,,0.0,0.0,0.0,0.0,0.0,0.0,0.0,0.0,,,,,,,,,0.0,training_resp,,35.48806679667905,29.4636575919576,0.0,,right,gold,0.0,230.0,2.0,right,2023_Aug_31_1118,habits_v_MRI,5.0,40.0,1.0,5.0,30.0,15.0,5.0,15.0,30.0,30.0,60.0,RR,60.03487545423543,
6.0,0.0,resp1,stim/right_resp_img.png,"[-0.5, 0]",right,stim/gold_coin.png,silver,,,,,training,,,gold,val,,,,,0.0,0.0,0.0,0.0,0.0,0.0,0.0,0.0,,,,,,,,,0.0,training_resp,,35.82131675048731,29.796930125681683,0.0,13.0,right,gold,1.0,230.0,2.0,right,2023_Aug_31_1118,habits_v_MRI,5.0,40.0,1.0,5.0,30.0,15.0,5.0,15.0,30.0,30.0,60.0,RR,60.03487545423543,
6.0,0.0,resp1,stim/right_resp_img.png,"[-0.5, 0]",right,stim/gold_coin.png,silver,,,,,training,,,gold,val,,,,,0.0,0.0,0.0,0.0,0.0,0.0,0.0,0.0,,,,,,,,,0.0,training_resp,,36.72131285024807,30.696877546608448,0.0,,right,gold,0.0,230.0,2.0,right,2023_Aug_31_1118,habits_v_MRI,5.0,40.0,1.0,5.0,30.0,15.0,5.0,15.0,30.0,30.0,60.0,RR,60.03487545423543,
6.0,0.0,resp1,stim/right_resp_img.png,"[-0.5, 0]",right,stim/gold_coin.png,silver,,,,,training,,,gold,val,,,,,0.0,0.0,0.0,0.0,0.0,0.0,0.0,0.0,,,,,,,,,0.0,training_resp,,37.1380434690509,31.113579427357763,0.0,,right,gold,0.0,230.0,2.0,right,2023_Aug_31_1118,habits_v_MRI,5.0,40.0,1.0,5.0,30.0,15.0,5.0,15.0,30.0,30.0,60.0,RR,60.03487545423543,
6.0,0.0,resp1,stim/right_resp_img.png,"[-0.5, 0]",right,stim/gold_coin.png,silver,,,,,training,,,gold,val,,,,,0.0,0.0,0.0,0.0,0.0,0.0,0.0,0.0,,,,,,,,,0.0,training_resp,,37.487989966291934,31.46354058687575,0.0,,right,gold,0.0,230.0,2.0,right,2023_Aug_31_1118,habits_v_MRI,5.0,40.0,1.0,5.0,30.0,15.0,5.0,15.0,30.0,30.0,60.0,RR,60.03487545423543,
6.0,0.0,resp1,stim/right_resp_img.png,"[-0.5, 0]",right,stim/gold_coin.png,silver,,,,,training,,,gold,val,,,,,0.0,0.0,0.0,0.0,0.0,0.0,0.0,0.0,,,,,,,,,0.0,training_resp,,37.837900100974366,31.813477993477136,0.0,,right,gold,0.0,230.0,2.0,right,2023_Aug_31_1118,habits_v_MRI,5.0,40.0,1.0,5.0,30.0,15.0,5.0,15.0,30.0,30.0,60.0,RR,60.03487545423543,
6.0,0.0,resp1,stim/right_resp_img.png,"[-0.5, 0]",right,stim/gold_coin.png,silver,,,,,training,,,gold,val,,,,,0.0,0.0,0.0,0.0,0.0,0.0,0.0,0.0,,,,,,,,,0.0,training_resp,,38.15470687579364,32.130188876762986,0.0,,right,gold,0.0,230.0,2.0,right,2023_Aug_31_1118,habits_v_MRI,5.0,40.0,1.0,5.0,30.0,15.0,5.0,15.0,30.0,30.0,60.0,RR,60.03487545423543,
6.0,0.0,resp1,stim/right_resp_img.png,"[-0.5, 0]",right,stim/gold_coin.png,silver,,,,,training,,,gold,val,,,,,0.0,0.0,0.0,0.0,0.0,0.0,0.0,0.0,,,,,,,,,0.0,training_resp,,38.48783953115344,32.463388978736475,0.0,,right,gold,0.0,230.0,2.0,right,2023_Aug_31_1118,habits_v_MRI,5.0,40.0,1.0,5.0,30.0,15.0,5.0,15.0,30.0,30.0,60.0,RR,60.03487545423543,
6.0,0.0,resp1,stim/right_resp_img.png,"[-0.5, 0]",right,stim/gold_coin.png,silver,,,,,training,,,gold,val,,,,,0.0,0.0,0.0,0.0,0.0,0.0,0.0,0.0,,,,,,,,,0.0,training_resp,,38.80450349487364,32.78006173996255,0.0,,right,gold,0.0,230.0,2.0,right,2023_Aug_31_1118,habits_v_MRI,5.0,40.0,1.0,5.0,30.0,15.0,5.0,15.0,30.0,30.0,60.0,RR,60.03487545423543,
6.0,0.0,resp1,stim/right_resp_img.png,"[-0.5, 0]",right,stim/gold_coin.png,silver,,,,,training,,,gold,val,,,,,0.0,0.0,0.0,0.0,0.0,0.0,0.0,0.0,,,,,,,,,0.0,training_resp,,39.12118153460324,33.096771450247616,0.0,,right,gold,0.0,230.0,2.0,right,2023_Aug_31_1118,habits_v_MRI,5.0,40.0,1.0,5.0,30.0,15.0,5.0,15.0,30.0,30.0,60.0,RR,60.03487545423543,
6.0,0.0,resp1,stim/right_resp_img.png,"[-0.5, 0]",right,stim/gold_coin.png,silver,,,,,training,,,gold,val,,,,,0.0,0.0,0.0,0.0,0.0,0.0,0.0,0.0,,,,,,,,,0.0,training_resp,,39.45444145891816,33.43003020132892,0.0,,right,gold,0.0,230.0,2.0,right,2023_Aug_31_1118,habits_v_MRI,5.0,40.0,1.0,5.0,30.0,15.0,5.0,15.0,30.0,30.0,60.0,RR,60.03487545423543,
6.0,0.0,resp1,stim/right_resp_img.png,"[-0.5, 0]",right,stim/gold_coin.png,silver,,,,,training,,,gold,val,,,,,0.0,0.0,0.0,0.0,0.0,0.0,0.0,0.0,,,,,,,,,0.0,training_resp,,39.77104002889246,33.746651351451874,0.0,,right,gold,0.0,230.0,2.0,right,2023_Aug_31_1118,habits_v_MRI,5.0,40.0,1.0,5.0,30.0,15.0,5.0,15.0,30.0,30.0,60.0,RR,60.03487545423543,
6.0,0.0,resp1,stim/right_resp_img.png,"[-0.5, 0]",right,stim/gold_coin.png,silver,,,,,training,,,gold,val,,,,,0.0,0.0,0.0,0.0,0.0,0.0,0.0,0.0,,,,,,,,,0.0,training_resp,,40.08790222695097,34.06336370087229,0.0,,right,gold,0.0,230.0,2.0,right,2023_Aug_31_1118,habits_v_MRI,5.0,40.0,1.0,5.0,30.0,15.0,5.0,15.0,30.0,30.0,60.0,RR,60.03487545423543,
6.0,0.0,resp1,stim/right_resp_img.png,"[-0.5, 0]",right,stim/gold_coin.png,silver,,,,,training,,,gold,val,,,,,0.0,0.0,0.0,0.0,0.0,0.0,0.0,0.0,,,,,,,,,0.0,training_resp,,40.43771910970099,34.41326973028481,0.0,,right,gold,0.0,230.0,2.0,right,2023_Aug_31_1118,habits_v_MRI,5.0,40.0,1.0,5.0,30.0,15.0,5.0,15.0,30.0,30.0,60.0,RR,60.03487545423543,
6.0,0.0,resp1,stim/right_resp_img.png,"[-0.5, 0]",right,stim/gold_coin.png,silver,,,,,training,,,gold,val,,,,,0.0,0.0,0.0,0.0,0.0,0.0,0.0,0.0,,,,,,,,,0.0,training_resp,,40.77103240438737,34.74661498889327,0.0,17.0,right,gold,1.0,230.0,2.0,right,2023_Aug_31_1118,habits_v_MRI,5.0,40.0,1.0,5.0,30.0,15.0,5.0,15.0,30.0,30.0,60.0,RR,60.03487545423543,
6.0,0.0,resp1,stim/right_resp_img.png,"[-0.5, 0]",right,stim/gold_coin.png,silver,,,,,training,,,gold,val,,,,,0.0,0.0,0.0,0.0,0.0,0.0,0.0,0.0,,,,,,,,,0.0,training_resp,,41.687719476176426,35.66321613965556,0.0,,right,gold,0.0,230.0,2.0,right,2023_Aug_31_1118,habits_v_MRI,5.0,40.0,1.0,5.0,30.0,15.0,5.0,15.0,30.0,30.0,60.0,RR,60.03487545423543,
6.0,0.0,resp1,stim/right_resp_img.png,"[-0.5, 0]",right,stim/gold_coin.png,silver,,,,,training,,,gold,val,,,,,0.0,0.0,0.0,0.0,0.0,0.0,0.0,0.0,,,,,,,,,0.0,training_resp,,42.08776469482109,36.06326575670391,0.0,,right,gold,0.0,230.0,2.0,right,2023_Aug_31_1118,habits_v_MRI,5.0,40.0,1.0,5.0,30.0,15.0,5.0,15.0,30.0,30.0,60.0,RR,60.03487545423543,
6.0,0.0,resp1,stim/right_resp_img.png,"[-0.5, 0]",right,stim/gold_coin.png,silver,,,,,training,,,gold,val,,,,,0.0,0.0,0.0,0.0,0.0,0.0,0.0,0.0,,,,,,,,,0.0,training_resp,,42.38778431294486,36.3632132364437,0.0,,right,gold,0.0,230.0,2.0,right,2023_Aug_31_1118,habits_v_MRI,5.0,40.0,1.0,5.0,30.0,15.0,5.0,15.0,30.0,30.0,60.0,RR,60.03487545423543,
6.0,0.0,resp1,stim/right_resp_img.png,"[-0.5, 0]",right,stim/gold_coin.png,silver,,,,,training,,,gold,val,,,,,0.0,0.0,0.0,0.0,0.0,0.0,0.0,0.0,,,,,,,,,0.0,training_resp,,42.704230395145714,36.679804475279525,0.0,,right,gold,0.0,230.0,2.0,right,2023_Aug_31_1118,habits_v_MRI,5.0,40.0,1.0,5.0,30.0,15.0,5.0,15.0,30.0,30.0,60.0,RR,60.03487545423543,
6.0,0.0,resp1,stim/right_resp_img.png,"[-0.5, 0]",right,stim/gold_coin.png,silver,,,,,training,,,gold,val,,,,,0.0,0.0,0.0,0.0,0.0,0.0,0.0,0.0,,,,,,,,,0.0,training_resp,,43.03767125192098,37.01318961544894,0.0,,right,gold,0.0,230.0,2.0,right,2023_Aug_31_1118,habits_v_MRI,5.0,40.0,1.0,5.0,30.0,15.0,5.0,15.0,30.0,30.0,60.0,RR,60.03487545423543,
6.0,0.0,resp1,stim/right_resp_img.png,"[-0.5, 0]",right,stim/gold_coin.png,silver,,,,,training,,,gold,val,,,,,0.0,0.0,0.0,0.0,0.0,0.0,0.0,0.0,,,,,,,,,0.0,ITI_start,25.0,43.20490119513124,37.1798134194687,,,,,,230.0,2.0,right,2023_Aug_31_1118,habits_v_MRI,5.0,40.0,1.0,5.0,30.0,15.0,5.0,15.0,30.0,30.0,60.0,RR,60.03487545423543,
6.0,1.0,resp2,stim/left_resp_img.png,"[0.5, 0]",left,stim/silver_coin.png,silver,,,,,training,,,silver,deval,,,,,0.0,0.0,0.0,0.0,0.0,1.0,1.0,1.0,,,,,,,,,0.0,training_period_start,30.0,68.24040154740214,0.0,1.0,20.0,,,,230.0,2.0,right,2023_Aug_31_1118,habits_v_MRI,5.0,40.0,1.0,5.0,30.0,15.0,5.0,15.0,30.0,30.0,60.0,RR,60.03487545423543,
6.0,1.0,resp2,stim/left_resp_img.png,"[0.5, 0]",left,stim/silver_coin.png,silver,,,,,training,,,silver,deval,,,,,0.0,0.0,0.0,0.0,0.0,1.0,1.0,1.0,,,,,,,,,0.0,training_resp,,68.90261537232436,0.681451931130141,1.0,,left,silver,0.0,230.0,2.0,right,2023_Aug_31_1118,habits_v_MRI,5.0,40.0,1.0,5.0,30.0,15.0,5.0,15.0,30.0,30.0,60.0,RR,60.03487545423543,
6.0,1.0,resp2,stim/left_resp_img.png,"[0.5, 0]",left,stim/silver_coin.png,silver,,,,,training,,,silver,deval,,,,,0.0,0.0,0.0,0.0,0.0,1.0,1.0,1.0,,,,,,,,,0.0,training_resp,,69.2358791087754,1.0148141980171204,1.0,,left,silver,0.0,230.0,2.0,right,2023_Aug_31_1118,habits_v_MRI,5.0,40.0,1.0,5.0,30.0,15.0,5.0,15.0,30.0,30.0,60.0,RR,60.03487545423543,
6.0,1.0,resp2,stim/left_resp_img.png,"[0.5, 0]",left,stim/silver_coin.png,silver,,,,,training,,,silver,deval,,,,,0.0,0.0,0.0,0.0,0.0,1.0,1.0,1.0,,,,,,,,,0.0,training_resp,,69.53584770206362,1.3147974535822868,1.0,,left,silver,0.0,230.0,2.0,right,2023_Aug_31_1118,habits_v_MRI,5.0,40.0,1.0,5.0,30.0,15.0,5.0,15.0,30.0,30.0,60.0,RR,60.03487545423543,
6.0,1.0,resp2,stim/left_resp_img.png,"[0.5, 0]",left,stim/silver_coin.png,silver,,,,,training,,,silver,deval,,,,,0.0,0.0,0.0,0.0,0.0,1.0,1.0,1.0,,,,,,,,,0.0,training_resp,,69.83587435819209,1.614805928431451,1.0,,left,silver,0.0,230.0,2.0,right,2023_Aug_31_1118,habits_v_MRI,5.0,40.0,1.0,5.0,30.0,15.0,5.0,15.0,30.0,30.0,60.0,RR,60.03487545423543,
6.0,1.0,resp2,stim/left_resp_img.png,"[0.5, 0]",left,stim/silver_coin.png,silver,,,,,training,,,silver,deval,,,,,0.0,0.0,0.0,0.0,0.0,1.0,1.0,1.0,,,,,,,,,0.0,training_resp,,70.13581538642757,1.914778627222404,1.0,,left,silver,0.0,230.0,2.0,right,2023_Aug_31_1118,habits_v_MRI,5.0,40.0,1.0,5.0,30.0,15.0,5.0,15.0,30.0,30.0,60.0,RR,60.03487545423543,
6.0,1.0,resp2,stim/left_resp_img.png,"[0.5, 0]",left,stim/silver_coin.png,silver,,,,,training,,,silver,deval,,,,,0.0,0.0,0.0,0.0,0.0,1.0,1.0,1.0,,,,,,,,,0.0,training_resp,,70.43581799627282,2.214743115240708,1.0,,left,silver,0.0,230.0,2.0,right,2023_Aug_31_1118,habits_v_MRI,5.0,40.0,1.0,5.0,30.0,15.0,5.0,15.0,30.0,30.0,60.0,RR,60.03487545423543,
6.0,1.0,resp2,stim/left_resp_img.png,"[0.5, 0]",left,stim/silver_coin.png,silver,,,,,training,,,silver,deval,,,,,0.0,0.0,0.0,0.0,0.0,1.0,1.0,1.0,,,,,,,,,0.0,training_resp,,70.73581327497959,2.5147199195344,1.0,,left,silver,0.0,230.0,2.0,right,2023_Aug_31_1118,habits_v_MRI,5.0,40.0,1.0,5.0,30.0,15.0,5.0,15.0,30.0,30.0,60.0,RR,60.03487545423543,
6.0,1.0,resp2,stim/left_resp_img.png,"[0.5, 0]",left,stim/silver_coin.png,silver,,,,,training,,,silver,deval,,,,,0.0,0.0,0.0,0.0,0.0,1.0,1.0,1.0,,,,,,,,,0.0,training_resp,,71.06900545931421,2.847958729835227,1.0,,left,silver,0.0,230.0,2.0,right,2023_Aug_31_1118,habits_v_MRI,5.0,40.0,1.0,5.0,30.0,15.0,5.0,15.0,30.0,30.0,60.0,RR,60.03487545423543,
6.0,1.0,resp2,stim/left_resp_img.png,"[0.5, 0]",left,stim/silver_coin.png,silver,,,,,training,,,silver,deval,,,,,0.0,0.0,0.0,0.0,0.0,1.0,1.0,1.0,,,,,,,,,0.0,training_resp,,71.38570285332389,3.1646212274208665,1.0,,left,silver,0.0,230.0,2.0,right,2023_Aug_31_1118,habits_v_MRI,5.0,40.0,1.0,5.0,30.0,15.0,5.0,15.0,30.0,30.0,60.0,RR,60.03487545423543,
6.0,1.0,resp2,stim/left_resp_img.png,"[0.5, 0]",left,stim/silver_coin.png,silver,,,,,training,,,silver,deval,,,,,0.0,0.0,0.0,0.0,0.0,1.0,1.0,1.0,,,,,,,,,0.0,training_resp,,71.68613184266724,3.464639379410073,1.0,,left,silver,0.0,230.0,2.0,right,2023_Aug_31_1118,habits_v_MRI,5.0,40.0,1.0,5.0,30.0,15.0,5.0,15.0,30.0,30.0,60.0,RR,60.03487545423543,
6.0,1.0,resp2,stim/left_resp_img.png,"[0.5, 0]",left,stim/silver_coin.png,silver,,,,,training,,,silver,deval,,,,,0.0,0.0,0.0,0.0,0.0,1.0,1.0,1.0,,,,,,,,,0.0,training_resp,,71.96904085413553,3.747972131241113,1.0,,left,silver,0.0,230.0,2.0,right,2023_Aug_31_1118,habits_v_MRI,5.0,40.0,1.0,5.0,30.0,15.0,5.0,15.0,30.0,30.0,60.0,RR,60.03487545423543,
6.0,1.0,resp2,stim/left_resp_img.png,"[0.5, 0]",left,stim/silver_coin.png,silver,,,,,training,,,silver,deval,,,,,0.0,0.0,0.0,0.0,0.0,1.0,1.0,1.0,,,,,,,,,0.0,training_resp,,72.302325704135,4.081218859180808,1.0,,left,silver,0.0,230.0,2.0,right,2023_Aug_31_1118,habits_v_MRI,5.0,40.0,1.0,5.0,30.0,15.0,5.0,15.0,30.0,30.0,60.0,RR,60.03487545423543,
6.0,1.0,resp2,stim/left_resp_img.png,"[0.5, 0]",left,stim/silver_coin.png,silver,,,,,training,,,silver,deval,,,,,0.0,0.0,0.0,0.0,0.0,1.0,1.0,1.0,,,,,,,,,0.0,training_resp,,72.60236966167577,4.381250793579966,1.0,,left,silver,0.0,230.0,2.0,right,2023_Aug_31_1118,habits_v_MRI,5.0,40.0,1.0,5.0,30.0,15.0,5.0,15.0,30.0,30.0,60.0,RR,60.03487545423543,
6.0,1.0,resp2,stim/left_resp_img.png,"[0.5, 0]",left,stim/silver_coin.png,silver,,,,,training,,,silver,deval,,,,,0.0,0.0,0.0,0.0,0.0,1.0,1.0,1.0,,,,,,,,,0.0,training_resp,,72.93568237009458,4.7145643818657845,1.0,,left,silver,0.0,230.0,2.0,right,2023_Aug_31_1118,habits_v_MRI,5.0,40.0,1.0,5.0,30.0,15.0,5.0,15.0,30.0,30.0,60.0,RR,60.03487545423543,
6.0,1.0,resp2,stim/left_resp_img.png,"[0.5, 0]",left,stim/silver_coin.png,silver,,,,,training,,,silver,deval,,,,,0.0,0.0,0.0,0.0,0.0,1.0,1.0,1.0,,,,,,,,,0.0,training_resp,,73.25237419223413,5.03122511995025,1.0,,left,silver,0.0,230.0,2.0,right,2023_Aug_31_1118,habits_v_MRI,5.0,40.0,1.0,5.0,30.0,15.0,5.0,15.0,30.0,30.0,60.0,RR,60.03487545423543,
6.0,1.0,resp2,stim/left_resp_img.png,"[0.5, 0]",left,stim/silver_coin.png,silver,,,,,training,,,silver,deval,,,,,0.0,0.0,0.0,0.0,0.0,1.0,1.0,1.0,,,,,,,,,0.0,training_resp,,73.56915926677175,5.347973538795486,1.0,,left,silver,0.0,230.0,2.0,right,2023_Aug_31_1118,habits_v_MRI,5.0,40.0,1.0,5.0,30.0,15.0,5.0,15.0,30.0,30.0,60.0,RR,60.03487545423543,
6.0,1.0,resp2,stim/left_resp_img.png,"[0.5, 0]",left,stim/silver_coin.png,silver,,,,,training,,,silver,deval,,,,,0.0,0.0,0.0,0.0,0.0,1.0,1.0,1.0,,,,,,,,,0.0,training_resp,,73.90241156658158,5.681265719933435,1.0,,left,silver,0.0,230.0,2.0,right,2023_Aug_31_1118,habits_v_MRI,5.0,40.0,1.0,5.0,30.0,15.0,5.0,15.0,30.0,30.0,60.0,RR,60.03487545423543,
6.0,1.0,resp2,stim/left_resp_img.png,"[0.5, 0]",left,stim/silver_coin.png,silver,,,,,training,,,silver,deval,,,,,0.0,0.0,0.0,0.0,0.0,1.0,1.0,1.0,,,,,,,,,0.0,training_resp,,74.23556240322068,6.014454971766099,1.0,,left,silver,0.0,230.0,2.0,right,2023_Aug_31_1118,habits_v_MRI,5.0,40.0,1.0,5.0,30.0,15.0,5.0,15.0,30.0,30.0,60.0,RR,60.03487545423543,
6.0,1.0,resp2,stim/left_resp_img.png,"[0.5, 0]",left,stim/silver_coin.png,silver,,,,,training,,,silver,deval,,,,,0.0,0.0,0.0,0.0,0.0,1.0,1.0,1.0,,,,,,,,,0.0,training_resp,,74.55230671633035,6.331172892823815,1.0,,left,silver,0.0,230.0,2.0,right,2023_Aug_31_1118,habits_v_MRI,5.0,40.0,1.0,5.0,30.0,15.0,5.0,15.0,30.0,30.0,60.0,RR,60.03487545423543,
6.0,1.0,resp2,stim/left_resp_img.png,"[0.5, 0]",left,stim/silver_coin.png,silver,,,,,training,,,silver,deval,,,,,0.0,0.0,0.0,0.0,0.0,1.0,1.0,1.0,,,,,,,,,0.0,training_resp,,74.90218635369092,6.681090945377946,1.0,21.0,left,silver,1.0,230.0,2.0,right,2023_Aug_31_1118,habits_v_MRI,5.0,40.0,1.0,5.0,30.0,15.0,5.0,15.0,30.0,30.0,60.0,RR,60.03487545423543,
6.0,1.0,resp2,stim/left_resp_img.png,"[0.5, 0]",left,stim/silver_coin.png,silver,,,,,training,,,silver,deval,,,,,0.0,0.0,0.0,0.0,0.0,1.0,1.0,1.0,,,,,,,,,0.0,training_resp,,75.55216830433346,7.331028322689235,1.0,,left,silver,0.0,230.0,2.0,right,2023_Aug_31_1118,habits_v_MRI,5.0,40.0,1.0,5.0,30.0,15.0,5.0,15.0,30.0,30.0,60.0,RR,60.03487545423543,
6.0,1.0,resp2,stim/left_resp_img.png,"[0.5, 0]",left,stim/silver_coin.png,silver,,,,,training,,,silver,deval,,,,,0.0,0.0,0.0,0.0,0.0,1.0,1.0,1.0,,,,,,,,,0.0,training_resp,,75.8521720871795,7.631035038037226,1.0,,left,silver,0.0,230.0,2.0,right,2023_Aug_31_1118,habits_v_MRI,5.0,40.0,1.0,5.0,30.0,15.0,5.0,15.0,30.0,30.0,60.0,RR,60.03487545423543,
6.0,1.0,resp2,stim/left_resp_img.png,"[0.5, 0]",left,stim/silver_coin.png,silver,,,,,training,,,silver,deval,,,,,0.0,0.0,0.0,0.0,0.0,1.0,1.0,1.0,,,,,,,,,0.0,training_resp,,76.1520764597226,7.931002458324656,1.0,,left,silver,0.0,230.0,2.0,right,2023_Aug_31_1118,habits_v_MRI,5.0,40.0,1.0,5.0,30.0,15.0,5.0,15.0,30.0,30.0,60.0,RR,60.03487545423543,
6.0,1.0,resp2,stim/left_resp_img.png,"[0.5, 0]",left,stim/silver_coin.png,silver,,,,,training,,,silver,deval,,,,,0.0,0.0,0.0,0.0,0.0,1.0,1.0,1.0,,,,,,,,,0.0,training_resp,,76.48549092444591,8.264316926244646,1.0,,left,silver,0.0,230.0,2.0,right,2023_Aug_31_1118,habits_v_MRI,5.0,40.0,1.0,5.0,30.0,15.0,5.0,15.0,30.0,30.0,60.0,RR,60.03487545423543,
6.0,1.0,resp2,stim/left_resp_img.png,"[0.5, 0]",left,stim/silver_coin.png,silver,,,,,training,,,silver,deval,,,,,0.0,0.0,0.0,0.0,0.0,1.0,1.0,1.0,,,,,,,,,0.0,training_resp,,77.13548959023319,8.914351367857307,1.0,,left,silver,0.0,230.0,2.0,right,2023_Aug_31_1118,habits_v_MRI,5.0,40.0,1.0,5.0,30.0,15.0,5.0,15.0,30.0,30.0,60.0,RR,60.03487545423543,
6.0,1.0,resp2,stim/left_resp_img.png,"[0.5, 0]",left,stim/silver_coin.png,silver,,,,,training,,,silver,deval,,,,,0.0,0.0,0.0,0.0,0.0,1.0,1.0,1.0,,,,,,,,,0.0,training_resp,,77.50195375084877,9.28091376600787,1.0,,left,silver,0.0,230.0,2.0,right,2023_Aug_31_1118,habits_v_MRI,5.0,40.0,1.0,5.0,30.0,15.0,5.0,15.0,30.0,30.0,60.0,RR,60.03487545423543,
6.0,1.0,resp2,stim/left_resp_img.png,"[0.5, 0]",left,stim/silver_coin.png,silver,,,,,training,,,silver,deval,,,,,0.0,0.0,0.0,0.0,0.0,1.0,1.0,1.0,,,,,,,,,0.0,training_resp,,77.85195948393084,9.630891640670598,1.0,,left,silver,0.0,230.0,2.0,right,2023_Aug_31_1118,habits_v_MRI,5.0,40.0,1.0,5.0,30.0,15.0,5.0,15.0,30.0,30.0,60.0,RR,60.03487545423543,
6.0,1.0,resp2,stim/left_resp_img.png,"[0.5, 0]",left,stim/silver_coin.png,silver,,,,,training,,,silver,deval,,,,,0.0,0.0,0.0,0.0,0.0,1.0,1.0,1.0,,,,,,,,,0.0,training_resp,,78.16862638038583,9.947521294932812,1.0,,left,silver,0.0,230.0,2.0,right,2023_Aug_31_1118,habits_v_MRI,5.0,40.0,1.0,5.0,30.0,15.0,5.0,15.0,30.0,30.0,60.0,RR,60.03487545423543,
6.0,1.0,resp2,stim/left_resp_img.png,"[0.5, 0]",left,stim/silver_coin.png,silver,,,,,training,,,silver,deval,,,,,0.0,0.0,0.0,0.0,0.0,1.0,1.0,1.0,,,,,,,,,0.0,training_resp,,78.48537978413515,10.264241268858314,1.0,,left,silver,0.0,230.0,2.0,right,2023_Aug_31_1118,habits_v_MRI,5.0,40.0,1.0,5.0,30.0,15.0,5.0,15.0,30.0,30.0,60.0,RR,60.03487545423543,
6.0,1.0,resp2,stim/left_resp_img.png,"[0.5, 0]",left,stim/silver_coin.png,silver,,,,,training,,,silver,deval,,,,,0.0,0.0,0.0,0.0,0.0,1.0,1.0,1.0,,,,,,,,,0.0,training_resp,,79.10192319471389,10.880818989127874,1.0,,left,silver,0.0,230.0,2.0,right,2023_Aug_31_1118,habits_v_MRI,5.0,40.0,1.0,5.0,30.0,15.0,5.0,15.0,30.0,30.0,60.0,RR,60.03487545423543,
6.0,1.0,resp2,stim/left_resp_img.png,"[0.5, 0]",left,stim/silver_coin.png,silver,,,,,training,,,silver,deval,,,,,0.0,0.0,0.0,0.0,0.0,1.0,1.0,1.0,,,,,,,,,0.0,training_resp,,79.8186009998899,11.597468349384144,1.0,,left,silver,0.0,230.0,2.0,right,2023_Aug_31_1118,habits_v_MRI,5.0,40.0,1.0,5.0,30.0,15.0,5.0,15.0,30.0,30.0,60.0,RR,60.03487545423543,
6.0,1.0,resp2,stim/left_resp_img.png,"[0.5, 0]",left,stim/silver_coin.png,silver,,,,,training,,,silver,deval,,,,,0.0,0.0,0.0,0.0,0.0,1.0,1.0,1.0,,,,,,,,,0.0,training_resp,,80.1685624527745,11.94745941995643,1.0,,left,silver,0.0,230.0,2.0,right,2023_Aug_31_1118,habits_v_MRI,5.0,40.0,1.0,5.0,30.0,15.0,5.0,15.0,30.0,30.0,60.0,RR,60.03487545423543,
6.0,1.0,resp2,stim/left_resp_img.png,"[0.5, 0]",left,stim/silver_coin.png,silver,,,,,training,,,silver,deval,,,,,0.0,0.0,0.0,0.0,0.0,1.0,1.0,1.0,,,,,,,,,0.0,training_resp,,80.50182882812805,12.280772714875638,1.0,,left,silver,0.0,230.0,2.0,right,2023_Aug_31_1118,habits_v_MRI,5.0,40.0,1.0,5.0,30.0,15.0,5.0,15.0,30.0,30.0,60.0,RR,60.03487545423543,
6.0,1.0,resp2,stim/left_resp_img.png,"[0.5, 0]",left,stim/silver_coin.png,silver,,,,,training,,,silver,deval,,,,,0.0,0.0,0.0,0.0,0.0,1.0,1.0,1.0,,,,,,,,,0.0,training_resp,,80.88525404036045,12.664119043853134,1.0,,left,silver,0.0,230.0,2.0,right,2023_Aug_31_1118,habits_v_MRI,5.0,40.0,1.0,5.0,30.0,15.0,5.0,15.0,30.0,30.0,60.0,RR,60.03487545423543,
6.0,1.0,resp2,stim/left_resp_img.png,"[0.5, 0]",left,stim/silver_coin.png,silver,,,,,training,,,silver,deval,,,,,0.0,0.0,0.0,0.0,0.0,1.0,1.0,1.0,,,,,,,,,0.0,training_resp,,81.20178633695468,12.980703538050877,1.0,,left,silver,0.0,230.0,2.0,right,2023_Aug_31_1118,habits_v_MRI,5.0,40.0,1.0,5.0,30.0,15.0,5.0,15.0,30.0,30.0,60.0,RR,60.03487545423543,
6.0,1.0,resp2,stim/left_resp_img.png,"[0.5, 0]",left,stim/silver_coin.png,silver,,,,,training,,,silver,deval,,,,,0.0,0.0,0.0,0.0,0.0,1.0,1.0,1.0,,,,,,,,,0.0,training_resp,,81.56854990171269,13.347309043398129,1.0,,left,silver,0.0,230.0,2.0,right,2023_Aug_31_1118,habits_v_MRI,5.0,40.0,1.0,5.0,30.0,15.0,5.0,15.0,30.0,30.0,60.0,RR,60.03487545423543,
6.0,1.0,resp2,stim/left_resp_img.png,"[0.5, 0]",left,stim/silver_coin.png,silver,,,,,training,,,silver,deval,,,,,0.0,0.0,0.0,0.0,0.0,1.0,1.0,1.0,,,,,,,,,0.0,training_resp,,81.88502677483484,13.66395511943847,1.0,,left,silver,0.0,230.0,2.0,right,2023_Aug_31_1118,habits_v_MRI,5.0,40.0,1.0,5.0,30.0,15.0,5.0,15.0,30.0,30.0,60.0,RR,60.03487545423543,
6.0,1.0,resp2,stim/left_resp_img.png,"[0.5, 0]",left,stim/silver_coin.png,silver,,,,,training,,,silver,deval,,,,,0.0,0.0,0.0,0.0,0.0,1.0,1.0,1.0,,,,,,,,,0.0,training_resp,,82.2350078751333,14.013930648099633,1.0,,left,silver,0.0,230.0,2.0,right,2023_Aug_31_1118,habits_v_MRI,5.0,40.0,1.0,5.0,30.0,15.0,5.0,15.0,30.0,30.0,60.0,RR,60.03487545423543,
6.0,1.0,resp2,stim/left_resp_img.png,"[0.5, 0]",left,stim/silver_coin.png,silver,,,,,training,,,silver,deval,,,,,0.0,0.0,0.0,0.0,0.0,1.0,1.0,1.0,,,,,,,,,0.0,training_resp,,82.56845049140975,14.347286170348523,1.0,,left,silver,0.0,230.0,2.0,right,2023_Aug_31_1118,habits_v_MRI,5.0,40.0,1.0,5.0,30.0,15.0,5.0,15.0,30.0,30.0,60.0,RR,60.03487545423543,
6.0,1.0,resp2,stim/left_resp_img.png,"[0.5, 0]",left,stim/silver_coin.png,silver,,,,,training,,,silver,deval,,,,,0.0,0.0,0.0,0.0,0.0,1.0,1.0,1.0,,,,,,,,,0.0,training_resp,,82.91845417162403,14.697313310112804,1.0,,left,silver,0.0,230.0,2.0,right,2023_Aug_31_1118,habits_v_MRI,5.0,40.0,1.0,5.0,30.0,15.0,5.0,15.0,30.0,30.0,60.0,RR,60.03487545423543,
6.0,1.0,resp2,stim/left_resp_img.png,"[0.5, 0]",left,stim/silver_coin.png,silver,,,,,training,,,silver,deval,,,,,0.0,0.0,0.0,0.0,0.0,1.0,1.0,1.0,,,,,,,,,0.0,training_resp,,83.60168551886454,15.380589817417786,1.0,16.0,left,silver,1.0,230.0,2.0,right,2023_Aug_31_1118,habits_v_MRI,5.0,40.0,1.0,5.0,30.0,15.0,5.0,15.0,30.0,30.0,60.0,RR,60.03487545423543,
6.0,1.0,resp2,stim/left_resp_img.png,"[0.5, 0]",left,stim/silver_coin.png,silver,,,,,training,,,silver,deval,,,,,0.0,0.0,0.0,0.0,0.0,1.0,1.0,1.0,,,,,,,,,0.0,training_resp,,84.61826711008325,16.39716026512906,1.0,,left,silver,0.0,230.0,2.0,right,2023_Aug_31_1118,habits_v_MRI,5.0,40.0,1.0,5.0,30.0,15.0,5.0,15.0,30.0,30.0,60.0,RR,60.03487545423543,
6.0,1.0,resp2,stim/left_resp_img.png,"[0.5, 0]",left,stim/silver_coin.png,silver,,,,,training,,,silver,deval,,,,,0.0,0.0,0.0,0.0,0.0,1.0,1.0,1.0,,,,,,,,,0.0,training_resp,,84.96829688921571,16.747142831562087,1.0,,left,silver,0.0,230.0,2.0,right,2023_Aug_31_1118,habits_v_MRI,5.0,40.0,1.0,5.0,30.0,15.0,5.0,15.0,30.0,30.0,60.0,RR,60.03487545423543,
6.0,1.0,resp2,stim/left_resp_img.png,"[0.5, 0]",left,stim/silver_coin.png,silver,,,,,training,,,silver,deval,,,,,0.0,0.0,0.0,0.0,0.0,1.0,1.0,1.0,,,,,,,,,0.0,training_resp,,85.61837355839089,17.397150587989017,1.0,,left,silver,0.0,230.0,2.0,right,2023_Aug_31_1118,habits_v_MRI,5.0,40.0,1.0,5.0,30.0,15.0,5.0,15.0,30.0,30.0,60.0,RR,60.03487545423543,
6.0,1.0,resp2,stim/left_resp_img.png,"[0.5, 0]",left,stim/silver_coin.png,silver,,,,,training,,,silver,deval,,,,,0.0,0.0,0.0,0.0,0.0,1.0,1.0,1.0,,,,,,,,,0.0,training_resp,,85.98480839445256,17.76373439305462,1.0,,left,silver,0.0,230.0,2.0,right,2023_Aug_31_1118,habits_v_MRI,5.0,40.0,1.0,5.0,30.0,15.0,5.0,15.0,30.0,30.0,60.0,RR,60.03487545423543,
6.0,1.0,resp2,stim/left_resp_img.png,"[0.5, 0]",left,stim/silver_coin.png,silver,,,,,training,,,silver,deval,,,,,0.0,0.0,0.0,0.0,0.0,1.0,1.0,1.0,,,,,,,,,0.0,training_resp,,86.31813781778328,18.097008393146098,1.0,,left,silver,0.0,230.0,2.0,right,2023_Aug_31_1118,habits_v_MRI,5.0,40.0,1.0,5.0,30.0,15.0,5.0,15.0,30.0,30.0,60.0,RR,60.03487545423543,
6.0,1.0,resp2,stim/left_resp_img.png,"[0.5, 0]",left,stim/silver_coin.png,silver,,,,,training,,,silver,deval,,,,,0.0,0.0,0.0,0.0,0.0,1.0,1.0,1.0,,,,,,,,,0.0,training_resp,,86.65150037803687,18.430379750672728,1.0,,left,silver,0.0,230.0,2.0,right,2023_Aug_31_1118,habits_v_MRI,5.0,40.0,1.0,5.0,30.0,15.0,5.0,15.0,30.0,30.0,60.0,RR,60.03487545423543,
6.0,1.0,resp2,stim/left_resp_img.png,"[0.5, 0]",left,stim/silver_coin.png,silver,,,,,training,,,silver,deval,,,,,0.0,0.0,0.0,0.0,0.0,1.0,1.0,1.0,,,,,,,,,0.0,training_resp,,87.00148001220077,18.780302201630548,1.0,,left,silver,0.0,230.0,2.0,right,2023_Aug_31_1118,habits_v_MRI,5.0,40.0,1.0,5.0,30.0,15.0,5.0,15.0,30.0,30.0,60.0,RR,60.03487545423543,
6.0,1.0,resp2,stim/left_resp_img.png,"[0.5, 0]",left,stim/silver_coin.png,silver,,,,,training,,,silver,deval,,,,,0.0,0.0,0.0,0.0,0.0,1.0,1.0,1.0,,,,,,,,,0.0,training_resp,,87.33468363294378,19.11363983596675,1.0,,left,silver,0.0,230.0,2.0,right,2023_Aug_31_1118,habits_v_MRI,5.0,40.0,1.0,5.0,30.0,15.0,5.0,15.0,30.0,30.0,60.0,RR,60.03487545423543,
6.0,1.0,resp2,stim/left_resp_img.png,"[0.5, 0]",left,stim/silver_coin.png,silver,,,,,training,,,silver,deval,,,,,0.0,0.0,0.0,0.0,0.0,1.0,1.0,1.0,,,,,,,,,0.0,training_resp,,87.70147417648695,19.480325690703467,1.0,,left,silver,0.0,230.0,2.0,right,2023_Aug_31_1118,habits_v_MRI,5.0,40.0,1.0,5.0,30.0,15.0,5.0,15.0,30.0,30.0,60.0,RR,60.03487545423543,
6.0,1.0,resp2,stim/left_resp_img.png,"[0.5, 0]",left,stim/silver_coin.png,silver,,,,,training,,,silver,deval,,,,,0.0,0.0,0.0,0.0,0.0,1.0,1.0,1.0,,,,,,,,,0.0,training_resp,,88.0346103508491,19.813561568735167,1.0,,left,silver,0.0,230.0,2.0,right,2023_Aug_31_1118,habits_v_MRI,5.0,40.0,1.0,5.0,30.0,15.0,5.0,15.0,30.0,30.0,60.0,RR,60.03487545423543,
6.0,1.0,resp2,stim/left_resp_img.png,"[0.5, 0]",left,stim/silver_coin.png,silver,,,,,training,,,silver,deval,,,,,0.0,0.0,0.0,0.0,0.0,1.0,1.0,1.0,,,,,,,,,0.0,training_resp,,88.3680321467109,20.146910932846367,1.0,,left,silver,0.0,230.0,2.0,right,2023_Aug_31_1118,habits_v_MRI,5.0,40.0,1.0,5.0,30.0,15.0,5.0,15.0,30.0,30.0,60.0,RR,60.03487545423543,
6.0,1.0,resp2,stim/left_resp_img.png,"[0.5, 0]",left,stim/silver_coin.png,silver,,,,,training,,,silver,deval,,,,,0.0,0.0,0.0,0.0,0.0,1.0,1.0,1.0,,,,,,,,,0.0,training_resp,,88.70137799181975,20.48022598703392,1.0,,left,silver,0.0,230.0,2.0,right,2023_Aug_31_1118,habits_v_MRI,5.0,40.0,1.0,5.0,30.0,15.0,5.0,15.0,30.0,30.0,60.0,RR,60.03487545423543,
6.0,1.0,resp2,stim/left_resp_img.png,"[0.5, 0]",left,stim/silver_coin.png,silver,,,,,training,,,silver,deval,,,,,0.0,0.0,0.0,0.0,0.0,1.0,1.0,1.0,,,,,,,,,0.0,training_resp,,89.05157638737,20.83013612194918,1.0,,left,silver,0.0,230.0,2.0,right,2023_Aug_31_1118,habits_v_MRI,5.0,40.0,1.0,5.0,30.0,15.0,5.0,15.0,30.0,30.0,60.0,RR,60.03487545423543,
6.0,1.0,resp2,stim/left_resp_img.png,"[0.5, 0]",left,stim/silver_coin.png,silver,,,,,training,,,silver,deval,,,,,0.0,0.0,0.0,0.0,0.0,1.0,1.0,1.0,,,,,,,,,0.0,training_resp,,89.40126893366687,21.18018906749785,1.0,,left,silver,0.0,230.0,2.0,right,2023_Aug_31_1118,habits_v_MRI,5.0,40.0,1.0,5.0,30.0,15.0,5.0,15.0,30.0,30.0,60.0,RR,60.03487545423543,
6.0,1.0,resp2,stim/left_resp_img.png,"[0.5, 0]",left,stim/silver_coin.png,silver,,,,,training,,,silver,deval,,,,,0.0,0.0,0.0,0.0,0.0,1.0,1.0,1.0,,,,,,,,,0.0,training_resp,,90.03457897366025,21.8134747678414,1.0,,left,silver,0.0,230.0,2.0,right,2023_Aug_31_1118,habits_v_MRI,5.0,40.0,1.0,5.0,30.0,15.0,5.0,15.0,30.0,30.0,60.0,RR,60.03487545423543,
6.0,1.0,resp2,stim/left_resp_img.png,"[0.5, 0]",left,stim/silver_coin.png,silver,,,,,training,,,silver,deval,,,,,0.0,0.0,0.0,0.0,0.0,1.0,1.0,1.0,,,,,,,,,0.0,training_resp,,90.73449161555618,22.51339650060981,1.0,16.0,left,silver,1.0,230.0,2.0,right,2023_Aug_31_1118,habits_v_MRI,5.0,40.0,1.0,5.0,30.0,15.0,5.0,15.0,30.0,30.0,60.0,RR,60.03487545423543,
6.0,1.0,resp2,stim/left_resp_img.png,"[0.5, 0]",left,stim/silver_coin.png,silver,,,,,training,,,silver,deval,,,,,0.0,0.0,0.0,0.0,0.0,1.0,1.0,1.0,,,,,,,,,0.0,training_resp,,91.76778939785436,23.546673462260514,1.0,,left,silver,0.0,230.0,2.0,right,2023_Aug_31_1118,habits_v_MRI,5.0,40.0,1.0,5.0,30.0,15.0,5.0,15.0,30.0,30.0,60.0,RR,60.03487545423543,
6.0,1.0,resp2,stim/left_resp_img.png,"[0.5, 0]",left,stim/silver_coin.png,silver,,,,,training,,,silver,deval,,,,,0.0,0.0,0.0,0.0,0.0,1.0,1.0,1.0,,,,,,,,,0.0,training_resp,,92.1676891662646,23.946629240643237,1.0,,left,silver,0.0,230.0,2.0,right,2023_Aug_31_1118,habits_v_MRI,5.0,40.0,1.0,5.0,30.0,15.0,5.0,15.0,30.0,30.0,60.0,RR,60.03487545423543,
6.0,1.0,resp2,stim/left_resp_img.png,"[0.5, 0]",left,stim/silver_coin.png,silver,,,,,training,,,silver,deval,,,,,0.0,0.0,0.0,0.0,0.0,1.0,1.0,1.0,,,,,,,,,0.0,training_resp,,92.48445430002177,24.263323115650564,1.0,,left,silver,0.0,230.0,2.0,right,2023_Aug_31_1118,habits_v_MRI,5.0,40.0,1.0,5.0,30.0,15.0,5.0,15.0,30.0,30.0,60.0,RR,60.03487545423543,
6.0,1.0,resp2,stim/left_resp_img.png,"[0.5, 0]",left,stim/silver_coin.png,silver,,,,,training,,,silver,deval,,,,,0.0,0.0,0.0,0.0,0.0,1.0,1.0,1.0,,,,,,,,,0.0,training_resp,,93.20109105063602,24.979910894297063,1.0,,left,silver,0.0,230.0,2.0,right,2023_Aug_31_1118,habits_v_MRI,5.0,40.0,1.0,5.0,30.0,15.0,5.0,15.0,30.0,30.0,60.0,RR,60.03487545423543,
6.0,1.0,resp2,stim/left_resp_img.png,"[0.5, 0]",left,stim/silver_coin.png,silver,,,,,training,,,silver,deval,,,,,0.0,0.0,0.0,0.0,0.0,1.0,1.0,1.0,,,,,,,,,0.0,training_resp,,93.88434263202362,25.663197371875867,1.0,,left,silver,0.0,230.0,2.0,right,2023_Aug_31_1118,habits_v_MRI,5.0,40.0,1.0,5.0,30.0,15.0,5.0,15.0,30.0,30.0,60.0,RR,60.03487545423543,
6.0,1.0,resp2,stim/left_resp_img.png,"[0.5, 0]",left,stim/silver_coin.png,silver,,,,,training,,,silver,deval,,,,,0.0,0.0,0.0,0.0,0.0,1.0,1.0,1.0,,,,,,,,,0.0,training_resp,,94.26763881603256,26.04655924299732,1.0,,left,silver,0.0,230.0,2.0,right,2023_Aug_31_1118,habits_v_MRI,5.0,40.0,1.0,5.0,30.0,15.0,5.0,15.0,30.0,30.0,60.0,RR,60.03487545423543,
6.0,1.0,resp2,stim/left_resp_img.png,"[0.5, 0]",left,stim/silver_coin.png,silver,,,,,training,,,silver,deval,,,,,0.0,0.0,0.0,0.0,0.0,1.0,1.0,1.0,,,,,,,,,0.0,training_resp,,94.85094455978832,26.629828624194488,1.0,,left,silver,0.0,230.0,2.0,right,2023_Aug_31_1118,habits_v_MRI,5.0,40.0,1.0,5.0,30.0,15.0,5.0,15.0,30.0,30.0,60.0,RR,60.03487545423543,
6.0,1.0,resp2,stim/left_resp_img.png,"[0.5, 0]",left,stim/silver_coin.png,silver,,,,,training,,,silver,deval,,,,,0.0,0.0,0.0,0.0,0.0,1.0,1.0,1.0,,,,,,,,,0.0,training_resp,,95.23438120842911,27.01315208012238,1.0,,left,silver,0.0,230.0,2.0,right,2023_Aug_31_1118,habits_v_MRI,5.0,40.0,1.0,5.0,30.0,15.0,5.0,15.0,30.0,30.0,60.0,RR,60.03487545423543,
6.0,1.0,resp2,stim/left_resp_img.png,"[0.5, 0]",left,stim/silver_coin.png,silver,,,,,training,,,silver,deval,,,,,0.0,0.0,0.0,0.0,0.0,1.0,1.0,1.0,,,,,,,,,0.0,training_resp,,95.56756136962213,27.34650085773319,1.0,,left,silver,0.0,230.0,2.0,right,2023_Aug_31_1118,habits_v_MRI,5.0,40.0,1.0,5.0,30.0,15.0,5.0,15.0,30.0,30.0,60.0,RR,60.03487545423543,
6.0,1.0,resp2,stim/left_resp_img.png,"[0.5, 0]",left,stim/silver_coin.png,silver,,,,,training,,,silver,deval,,,,,0.0,0.0,0.0,0.0,0.0,1.0,1.0,1.0,,,,,,,,,0.0,training_resp,,95.90096351807006,27.679800956510007,1.0,,left,silver,0.0,230.0,2.0,right,2023_Aug_31_1118,habits_v_MRI,5.0,40.0,1.0,5.0,30.0,15.0,5.0,15.0,30.0,30.0,60.0,RR,60.03487545423543,
6.0,1.0,resp2,stim/left_resp_img.png,"[0.5, 0]",left,stim/silver_coin.png,silver,,,,,training,,,silver,deval,,,,,0.0,0.0,0.0,0.0,0.0,1.0,1.0,1.0,,,,,,,,,0.0,training_resp,,96.2342677223496,28.013092257780954,1.0,,left,silver,0.0,230.0,2.0,right,2023_Aug_31_1118,habits_v_MRI,5.0,40.0,1.0,5.0,30.0,15.0,5.0,15.0,30.0,30.0,60.0,RR,60.03487545423543,
6.0,1.0,resp2,stim/left_resp_img.png,"[0.5, 0]",left,stim/silver_coin.png,silver,,,,,training,,,silver,deval,,,,,0.0,0.0,0.0,0.0,0.0,1.0,1.0,1.0,,,,,,,,,0.0,training_resp,,96.88417753460816,28.663031394593418,1.0,,left,silver,0.0,230.0,2.0,right,2023_Aug_31_1118,habits_v_MRI,5.0,40.0,1.0,5.0,30.0,15.0,5.0,15.0,30.0,30.0,60.0,RR,60.03487545423543,
6.0,1.0,resp2,stim/left_resp_img.png,"[0.5, 0]",left,stim/silver_coin.png,silver,,,,,training,,,silver,deval,,,,,0.0,0.0,0.0,0.0,0.0,1.0,1.0,1.0,,,,,,,,,0.0,training_resp,,97.28426673985086,29.06304201018065,1.0,,left,silver,0.0,230.0,2.0,right,2023_Aug_31_1118,habits_v_MRI,5.0,40.0,1.0,5.0,30.0,15.0,5.0,15.0,30.0,30.0,60.0,RR,60.03487545423543,
6.0,1.0,resp2,stim/left_resp_img.png,"[0.5, 0]",left,stim/silver_coin.png,silver,,,,,training,,,silver,deval,,,,,0.0,0.0,0.0,0.0,0.0,1.0,1.0,1.0,,,,,,,,,0.0,training_resp,,97.65080831758678,29.429717894643545,1.0,,left,silver,0.0,230.0,2.0,right,2023_Aug_31_1118,habits_v_MRI,5.0,40.0,1.0,5.0,30.0,15.0,5.0,15.0,30.0,30.0,60.0,RR,60.03487545423543,
6.0,1.0,resp2,stim/left_resp_img.png,"[0.5, 0]",left,stim/silver_coin.png,silver,,,,,training,,,silver,deval,,,,,0.0,0.0,0.0,0.0,0.0,1.0,1.0,1.0,,,,,,,,,0.0,ITI_start,16.666666666666668,97.90156056685372,29.67961914394982,,,,,,230.0,2.0,right,2023_Aug_31_1118,habits_v_MRI,5.0,40.0,1.0,5.0,30.0,15.0,5.0,15.0,30.0,30.0,60.0,RR,60.03487545423543,
6.0,0.0,resp1,stim/right_resp_img.png,"[-0.5, 0]",right,stim/gold_coin.png,silver,,,,,training,,,gold,val,,,,,0.0,0.0,0.0,0.0,1.0,0.0,2.0,0.0,,,,,,,,,0.0,training_period_start,45.0,114.60503761307336,0.0,2.0,12.0,,,,230.0,2.0,right,2023_Aug_31_1118,habits_v_MRI,5.0,40.0,1.0,5.0,30.0,15.0,5.0,15.0,30.0,30.0,60.0,RR,60.03487545423543,
6.0,0.0,resp1,stim/right_resp_img.png,"[-0.5, 0]",right,stim/gold_coin.png,silver,,,,,training,,,gold,val,,,,,0.0,0.0,0.0,0.0,1.0,0.0,2.0,0.0,,,,,,,,,0.0,training_resp,,115.86629950325003,1.281422840896994,2.0,,right,gold,0.0,230.0,2.0,right,2023_Aug_31_1118,habits_v_MRI,5.0,40.0,1.0,5.0,30.0,15.0,5.0,15.0,30.0,30.0,60.0,RR,60.03487545423543,
6.0,0.0,resp1,stim/right_resp_img.png,"[-0.5, 0]",right,stim/gold_coin.png,silver,,,,,training,,,gold,val,,,,,0.0,0.0,0.0,0.0,1.0,0.0,2.0,0.0,,,,,,,,,0.0,training_resp,,116.2495572718326,1.6647169720381498,2.0,,right,gold,0.0,230.0,2.0,right,2023_Aug_31_1118,habits_v_MRI,5.0,40.0,1.0,5.0,30.0,15.0,5.0,15.0,30.0,30.0,60.0,RR,60.03487545423543,
6.0,0.0,resp1,stim/right_resp_img.png,"[-0.5, 0]",right,stim/gold_coin.png,silver,,,,,training,,,gold,val,,,,,0.0,0.0,0.0,0.0,1.0,0.0,2.0,0.0,,,,,,,,,0.0,training_resp,,116.58299285033718,1.99805753887631,2.0,,right,gold,0.0,230.0,2.0,right,2023_Aug_31_1118,habits_v_MRI,5.0,40.0,1.0,5.0,30.0,15.0,5.0,15.0,30.0,30.0,60.0,RR,60.03487545423543,
6.0,0.0,resp1,stim/right_resp_img.png,"[-0.5, 0]",right,stim/gold_coin.png,silver,,,,,training,,,gold,val,,,,,0.0,0.0,0.0,0.0,1.0,0.0,2.0,0.0,,,,,,,,,0.0,training_resp,,116.9162202239968,2.3313784580677748,2.0,,right,gold,0.0,230.0,2.0,right,2023_Aug_31_1118,habits_v_MRI,5.0,40.0,1.0,5.0,30.0,15.0,5.0,15.0,30.0,30.0,60.0,RR,60.03487545423543,
6.0,0.0,resp1,stim/right_resp_img.png,"[-0.5, 0]",right,stim/gold_coin.png,silver,,,,,training,,,gold,val,,,,,0.0,0.0,0.0,0.0,1.0,0.0,2.0,0.0,,,,,,,,,0.0,training_resp,,117.23291087336838,2.6480233611073345,2.0,,right,gold,0.0,230.0,2.0,right,2023_Aug_31_1118,habits_v_MRI,5.0,40.0,1.0,5.0,30.0,15.0,5.0,15.0,30.0,30.0,60.0,RR,60.03487545423543,
6.0,0.0,resp1,stim/right_resp_img.png,"[-0.5, 0]",right,stim/gold_coin.png,silver,,,,,training,,,gold,val,,,,,0.0,0.0,0.0,0.0,1.0,0.0,2.0,0.0,,,,,,,,,0.0,training_resp,,117.58286264911294,2.9979604745749384,2.0,,right,gold,0.0,230.0,2.0,right,2023_Aug_31_1118,habits_v_MRI,5.0,40.0,1.0,5.0,30.0,15.0,5.0,15.0,30.0,30.0,60.0,RR,60.03487545423543,
6.0,0.0,resp1,stim/right_resp_img.png,"[-0.5, 0]",right,stim/gold_coin.png,silver,,,,,training,,,gold,val,,,,,0.0,0.0,0.0,0.0,1.0,0.0,2.0,0.0,,,,,,,,,0.0,training_resp,,117.88287962810136,3.297989183338359,2.0,,right,gold,0.0,230.0,2.0,right,2023_Aug_31_1118,habits_v_MRI,5.0,40.0,1.0,5.0,30.0,15.0,5.0,15.0,30.0,30.0,60.0,RR,60.03487545423543,
6.0,0.0,resp1,stim/right_resp_img.png,"[-0.5, 0]",right,stim/gold_coin.png,silver,,,,,training,,,gold,val,,,,,0.0,0.0,0.0,0.0,1.0,0.0,2.0,0.0,,,,,,,,,0.0,training_resp,,118.1994954997208,3.6146531470585614,2.0,,right,gold,0.0,230.0,2.0,right,2023_Aug_31_1118,habits_v_MRI,5.0,40.0,1.0,5.0,30.0,15.0,5.0,15.0,30.0,30.0,60.0,RR,60.03487545423543,
6.0,0.0,resp1,stim/right_resp_img.png,"[-0.5, 0]",right,stim/gold_coin.png,silver,,,,,training,,,gold,val,,,,,0.0,0.0,0.0,0.0,1.0,0.0,2.0,0.0,,,,,,,,,0.0,training_resp,,118.51615007966755,3.931290132459253,2.0,,right,gold,0.0,230.0,2.0,right,2023_Aug_31_1118,habits_v_MRI,5.0,40.0,1.0,5.0,30.0,15.0,5.0,15.0,30.0,30.0,60.0,RR,60.03487545423543,
6.0,0.0,resp1,stim/right_resp_img.png,"[-0.5, 0]",right,stim/gold_coin.png,silver,,,,,training,,,gold,val,,,,,0.0,0.0,0.0,0.0,1.0,0.0,2.0,0.0,,,,,,,,,0.0,training_resp,,118.84927217825316,4.264493166934699,2.0,,right,gold,0.0,230.0,2.0,right,2023_Aug_31_1118,habits_v_MRI,5.0,40.0,1.0,5.0,30.0,15.0,5.0,15.0,30.0,30.0,60.0,RR,60.03487545423543,
6.0,0.0,resp1,stim/right_resp_img.png,"[-0.5, 0]",right,stim/gold_coin.png,silver,,,,,training,,,gold,val,,,,,0.0,0.0,0.0,0.0,1.0,0.0,2.0,0.0,,,,,,,,,0.0,training_resp,,119.16615461022592,4.581187921576202,2.0,,right,gold,0.0,230.0,2.0,right,2023_Aug_31_1118,habits_v_MRI,5.0,40.0,1.0,5.0,30.0,15.0,5.0,15.0,30.0,30.0,60.0,RR,60.03487545423543,
6.0,0.0,resp1,stim/right_resp_img.png,"[-0.5, 0]",right,stim/gold_coin.png,silver,,,,,training,,,gold,val,,,,,0.0,0.0,0.0,0.0,1.0,0.0,2.0,0.0,,,,,,,,,0.0,training_resp,,119.4661334673874,4.881196103058755,2.0,20.0,right,gold,1.0,230.0,2.0,right,2023_Aug_31_1118,habits_v_MRI,5.0,40.0,1.0,5.0,30.0,15.0,5.0,15.0,30.0,30.0,60.0,RR,60.03487545423543,
6.0,0.0,resp1,stim/right_resp_img.png,"[-0.5, 0]",right,stim/gold_coin.png,silver,,,,,training,,,gold,val,,,,,0.0,0.0,0.0,0.0,1.0,0.0,2.0,0.0,,,,,,,,,0.0,training_resp,,120.1160406402778,5.531146969879046,2.0,,right,gold,0.0,230.0,2.0,right,2023_Aug_31_1118,habits_v_MRI,5.0,40.0,1.0,5.0,30.0,15.0,5.0,15.0,30.0,30.0,60.0,RR,60.03487545423543,
6.0,0.0,resp1,stim/right_resp_img.png,"[-0.5, 0]",right,stim/gold_coin.png,silver,,,,,training,,,gold,val,,,,,0.0,0.0,0.0,0.0,1.0,0.0,2.0,0.0,,,,,,,,,0.0,training_resp,,120.4160086470656,5.831156910862774,2.0,,right,gold,0.0,230.0,2.0,right,2023_Aug_31_1118,habits_v_MRI,5.0,40.0,1.0,5.0,30.0,15.0,5.0,15.0,30.0,30.0,60.0,RR,60.03487545423543,
6.0,0.0,resp1,stim/right_resp_img.png,"[-0.5, 0]",right,stim/gold_coin.png,silver,,,,,training,,,gold,val,,,,,0.0,0.0,0.0,0.0,1.0,0.0,2.0,0.0,,,,,,,,,0.0,training_resp,,120.6993748289533,6.114492008462548,2.0,,right,gold,0.0,230.0,2.0,right,2023_Aug_31_1118,habits_v_MRI,5.0,40.0,1.0,5.0,30.0,15.0,5.0,15.0,30.0,30.0,60.0,RR,60.03487545423543,
6.0,0.0,resp1,stim/right_resp_img.png,"[-0.5, 0]",right,stim/gold_coin.png,silver,,,,,training,,,gold,val,,,,,0.0,0.0,0.0,0.0,1.0,0.0,2.0,0.0,,,,,,,,,0.0,training_resp,,120.99925017007628,6.414422773057595,2.0,,right,gold,0.0,230.0,2.0,right,2023_Aug_31_1118,habits_v_MRI,5.0,40.0,1.0,5.0,30.0,15.0,5.0,15.0,30.0,30.0,60.0,RR,60.03487545423543,
6.0,0.0,resp1,stim/right_resp_img.png,"[-0.5, 0]",right,stim/gold_coin.png,silver,,,,,training,,,gold,val,,,,,0.0,0.0,0.0,0.0,1.0,0.0,2.0,0.0,,,,,,,,,0.0,training_resp,,121.33249308587985,6.747700878418982,2.0,,right,gold,0.0,230.0,2.0,right,2023_Aug_31_1118,habits_v_MRI,5.0,40.0,1.0,5.0,30.0,15.0,5.0,15.0,30.0,30.0,60.0,RR,60.03487545423543,
6.0,0.0,resp1,stim/right_resp_img.png,"[-0.5, 0]",right,stim/gold_coin.png,silver,,,,,training,,,gold,val,,,,,0.0,0.0,0.0,0.0,1.0,0.0,2.0,0.0,,,,,,,,,0.0,training_resp,,121.63249980122782,7.047663606936112,2.0,,right,gold,0.0,230.0,2.0,right,2023_Aug_31_1118,habits_v_MRI,5.0,40.0,1.0,5.0,30.0,15.0,5.0,15.0,30.0,30.0,60.0,RR,60.03487545423543,
6.0,0.0,resp1,stim/right_resp_img.png,"[-0.5, 0]",right,stim/gold_coin.png,silver,,,,,training,,,gold,val,,,,,0.0,0.0,0.0,0.0,1.0,0.0,2.0,0.0,,,,,,,,,0.0,training_resp,,121.96586851961912,7.381017956184223,2.0,,right,gold,0.0,230.0,2.0,right,2023_Aug_31_1118,habits_v_MRI,5.0,40.0,1.0,5.0,30.0,15.0,5.0,15.0,30.0,30.0,60.0,RR,60.03487545423543,
6.0,0.0,resp1,stim/right_resp_img.png,"[-0.5, 0]",right,stim/gold_coin.png,silver,,,,,training,,,gold,val,,,,,0.0,0.0,0.0,0.0,1.0,0.0,2.0,0.0,,,,,,,,,0.0,training_resp,,122.28245448018424,7.697666378226131,2.0,,right,gold,0.0,230.0,2.0,right,2023_Aug_31_1118,habits_v_MRI,5.0,40.0,1.0,5.0,30.0,15.0,5.0,15.0,30.0,30.0,60.0,RR,60.03487545423543,
6.0,0.0,resp1,stim/right_resp_img.png,"[-0.5, 0]",right,stim/gold_coin.png,silver,,,,,training,,,gold,val,,,,,0.0,0.0,0.0,0.0,1.0,0.0,2.0,0.0,,,,,,,,,0.0,training_resp,,122.79917814885266,8.214285651454702,2.0,,right,gold,0.0,230.0,2.0,right,2023_Aug_31_1118,habits_v_MRI,5.0,40.0,1.0,5.0,30.0,15.0,5.0,15.0,30.0,30.0,60.0,RR,60.03487545423543,
6.0,0.0,resp1,stim/right_resp_img.png,"[-0.5, 0]",right,stim/gold_coin.png,silver,,,,,training,,,gold,val,,,,,0.0,0.0,0.0,0.0,1.0,0.0,2.0,0.0,,,,,,,,,0.0,training_resp,,123.23270824039356,8.647660029353574,2.0,,right,gold,0.0,230.0,2.0,right,2023_Aug_31_1118,habits_v_MRI,5.0,40.0,1.0,5.0,30.0,15.0,5.0,15.0,30.0,30.0,60.0,RR,60.03487545423543,
6.0,0.0,resp1,stim/right_resp_img.png,"[-0.5, 0]",right,stim/gold_coin.png,silver,,,,,training,,,gold,val,,,,,0.0,0.0,0.0,0.0,1.0,0.0,2.0,0.0,,,,,,,,,0.0,training_resp,,123.53234634571707,8.947563815396279,2.0,,right,gold,0.0,230.0,2.0,right,2023_Aug_31_1118,habits_v_MRI,5.0,40.0,1.0,5.0,30.0,15.0,5.0,15.0,30.0,30.0,60.0,RR,60.03487545423543,
6.0,0.0,resp1,stim/right_resp_img.png,"[-0.5, 0]",right,stim/gold_coin.png,silver,,,,,training,,,gold,val,,,,,0.0,0.0,0.0,0.0,1.0,0.0,2.0,0.0,,,,,,,,,0.0,training_resp,,123.83237710711546,9.247568477876484,2.0,,right,gold,0.0,230.0,2.0,right,2023_Aug_31_1118,habits_v_MRI,5.0,40.0,1.0,5.0,30.0,15.0,5.0,15.0,30.0,30.0,60.0,RR,60.03487545423543,
6.0,0.0,resp1,stim/right_resp_img.png,"[-0.5, 0]",right,stim/gold_coin.png,silver,,,,,training,,,gold,val,,,,,0.0,0.0,0.0,0.0,1.0,0.0,2.0,0.0,,,,,,,,,0.0,training_resp,,124.16578541370107,9.58090230007656,2.0,,right,gold,0.0,230.0,2.0,right,2023_Aug_31_1118,habits_v_MRI,5.0,40.0,1.0,5.0,30.0,15.0,5.0,15.0,30.0,30.0,60.0,RR,60.03487545423543,
6.0,0.0,resp1,stim/right_resp_img.png,"[-0.5, 0]",right,stim/gold_coin.png,silver,,,,,training,,,gold,val,,,,,0.0,0.0,0.0,0.0,1.0,0.0,2.0,0.0,,,,,,,,,0.0,training_resp,,124.4824015784543,9.89755629352294,2.0,,right,gold,0.0,230.0,2.0,right,2023_Aug_31_1118,habits_v_MRI,5.0,40.0,1.0,5.0,30.0,15.0,5.0,15.0,30.0,30.0,60.0,RR,60.03487545423543,
6.0,0.0,resp1,stim/right_resp_img.png,"[-0.5, 0]",right,stim/gold_coin.png,silver,,,,,training,,,gold,val,,,,,0.0,0.0,0.0,0.0,1.0,0.0,2.0,0.0,,,,,,,,,0.0,training_resp,,124.79900278779678,10.214195038424805,2.0,,right,gold,0.0,230.0,2.0,right,2023_Aug_31_1118,habits_v_MRI,5.0,40.0,1.0,5.0,30.0,15.0,5.0,15.0,30.0,30.0,60.0,RR,60.03487545423543,
6.0,0.0,resp1,stim/right_resp_img.png,"[-0.5, 0]",right,stim/gold_coin.png,silver,,,,,training,,,gold,val,,,,,0.0,0.0,0.0,0.0,1.0,0.0,2.0,0.0,,,,,,,,,0.0,training_resp,,125.11562100541778,10.530805045040324,2.0,,right,gold,0.0,230.0,2.0,right,2023_Aug_31_1118,habits_v_MRI,5.0,40.0,1.0,5.0,30.0,15.0,5.0,15.0,30.0,30.0,60.0,RR,60.03487545423543,
6.0,0.0,resp1,stim/right_resp_img.png,"[-0.5, 0]",right,stim/gold_coin.png,silver,,,,,training,,,gold,val,,,,,0.0,0.0,0.0,0.0,1.0,0.0,2.0,0.0,,,,,,,,,0.0,training_resp,,125.41553945373744,10.830767480190843,2.0,,right,gold,0.0,230.0,2.0,right,2023_Aug_31_1118,habits_v_MRI,5.0,40.0,1.0,5.0,30.0,15.0,5.0,15.0,30.0,30.0,60.0,RR,60.03487545423543,
6.0,0.0,resp1,stim/right_resp_img.png,"[-0.5, 0]",right,stim/gold_coin.png,silver,,,,,training,,,gold,val,,,,,0.0,0.0,0.0,0.0,1.0,0.0,2.0,0.0,,,,,,,,,0.0,training_resp,,125.74898412264884,11.164109220029786,2.0,,right,gold,0.0,230.0,2.0,right,2023_Aug_31_1118,habits_v_MRI,5.0,40.0,1.0,5.0,30.0,15.0,5.0,15.0,30.0,30.0,60.0,RR,60.03487545423543,
6.0,0.0,resp1,stim/right_resp_img.png,"[-0.5, 0]",right,stim/gold_coin.png,silver,,,,,training,,,gold,val,,,,,0.0,0.0,0.0,0.0,1.0,0.0,2.0,0.0,,,,,,,,,0.0,training_resp,,126.06558943749404,11.480759107973428,2.0,,right,gold,0.0,230.0,2.0,right,2023_Aug_31_1118,habits_v_MRI,5.0,40.0,1.0,5.0,30.0,15.0,5.0,15.0,30.0,30.0,60.0,RR,60.03487545423543,
6.0,0.0,resp1,stim/right_resp_img.png,"[-0.5, 0]",right,stim/gold_coin.png,silver,,,,,training,,,gold,val,,,,,0.0,0.0,0.0,0.0,1.0,0.0,2.0,0.0,,,,,,,,,0.0,training_resp,,126.4155758160632,11.830732583999634,2.0,15.0,right,gold,1.0,230.0,2.0,right,2023_Aug_31_1118,habits_v_MRI,5.0,40.0,1.0,5.0,30.0,15.0,5.0,15.0,30.0,30.0,60.0,RR,60.03487545423543,
6.0,0.0,resp1,stim/right_resp_img.png,"[-0.5, 0]",right,stim/gold_coin.png,silver,,,,,training,,,gold,val,,,,,0.0,0.0,0.0,0.0,1.0,0.0,2.0,0.0,,,,,,,,,0.0,training_resp,,127.24886198574676,12.664050130872056,2.0,,right,gold,0.0,230.0,2.0,right,2023_Aug_31_1118,habits_v_MRI,5.0,40.0,1.0,5.0,30.0,15.0,5.0,15.0,30.0,30.0,60.0,RR,60.03487545423543,
6.0,0.0,resp1,stim/right_resp_img.png,"[-0.5, 0]",right,stim/gold_coin.png,silver,,,,,training,,,gold,val,,,,,0.0,0.0,0.0,0.0,1.0,0.0,2.0,0.0,,,,,,,,,0.0,training_resp,,127.64885735255666,13.06402174476534,2.0,,right,gold,0.0,230.0,2.0,right,2023_Aug_31_1118,habits_v_MRI,5.0,40.0,1.0,5.0,30.0,15.0,5.0,15.0,30.0,30.0,60.0,RR,60.03487545423543,
6.0,0.0,resp1,stim/right_resp_img.png,"[-0.5, 0]",right,stim/gold_coin.png,silver,,,,,training,,,gold,val,,,,,0.0,0.0,0.0,0.0,1.0,0.0,2.0,0.0,,,,,,,,,0.0,training_resp,,127.99897275934929,13.414043312892318,2.0,,right,gold,0.0,230.0,2.0,right,2023_Aug_31_1118,habits_v_MRI,5.0,40.0,1.0,5.0,30.0,15.0,5.0,15.0,30.0,30.0,60.0,RR,60.03487545423543,
6.0,0.0,resp1,stim/right_resp_img.png,"[-0.5, 0]",right,stim/gold_coin.png,silver,,,,,training,,,gold,val,,,,,0.0,0.0,0.0,0.0,1.0,0.0,2.0,0.0,,,,,,,,,0.0,training_resp,,128.53214488574304,13.947292269673198,2.0,,right,gold,0.0,230.0,2.0,right,2023_Aug_31_1118,habits_v_MRI,5.0,40.0,1.0,5.0,30.0,15.0,5.0,15.0,30.0,30.0,60.0,RR,60.03487545423543,
6.0,0.0,resp1,stim/right_resp_img.png,"[-0.5, 0]",right,stim/gold_coin.png,silver,,,,,training,,,gold,val,,,,,0.0,0.0,0.0,0.0,1.0,0.0,2.0,0.0,,,,,,,,,0.0,training_resp,,128.94898987025954,14.363983593415467,2.0,,right,gold,0.0,230.0,2.0,right,2023_Aug_31_1118,habits_v_MRI,5.0,40.0,1.0,5.0,30.0,15.0,5.0,15.0,30.0,30.0,60.0,RR,60.03487545423543,
6.0,0.0,resp1,stim/right_resp_img.png,"[-0.5, 0]",right,stim/gold_coin.png,silver,,,,,training,,,gold,val,,,,,0.0,0.0,0.0,0.0,1.0,0.0,2.0,0.0,,,,,,,,,0.0,training_resp,,129.4988462238107,14.913927334127948,2.0,,right,gold,0.0,230.0,2.0,right,2023_Aug_31_1118,habits_v_MRI,5.0,40.0,1.0,5.0,30.0,15.0,5.0,15.0,30.0,30.0,60.0,RR,60.03487545423543,
6.0,0.0,resp1,stim/right_resp_img.png,"[-0.5, 0]",right,stim/gold_coin.png,silver,,,,,training,,,gold,val,,,,,0.0,0.0,0.0,0.0,1.0,0.0,2.0,0.0,,,,,,,,,0.0,training_resp,,129.91534635121934,15.330516021931544,2.0,,right,gold,0.0,230.0,2.0,right,2023_Aug_31_1118,habits_v_MRI,5.0,40.0,1.0,5.0,30.0,15.0,5.0,15.0,30.0,30.0,60.0,RR,60.03487545423543,
6.0,0.0,resp1,stim/right_resp_img.png,"[-0.5, 0]",right,stim/gold_coin.png,silver,,,,,training,,,gold,val,,,,,0.0,0.0,0.0,0.0,1.0,0.0,2.0,0.0,,,,,,,,,0.0,training_resp,,130.18200425966643,15.597168945008889,2.0,,right,gold,0.0,230.0,2.0,right,2023_Aug_31_1118,habits_v_MRI,5.0,40.0,1.0,5.0,30.0,15.0,5.0,15.0,30.0,30.0,60.0,RR,60.03487545423543,
6.0,0.0,resp1,stim/right_resp_img.png,"[-0.5, 0]",right,stim/gold_coin.png,silver,,,,,training,,,gold,val,,,,,0.0,0.0,0.0,0.0,1.0,0.0,2.0,0.0,,,,,,,,,0.0,training_resp,,130.48203912656754,15.897190029500052,2.0,,right,gold,0.0,230.0,2.0,right,2023_Aug_31_1118,habits_v_MRI,5.0,40.0,1.0,5.0,30.0,15.0,5.0,15.0,30.0,30.0,60.0,RR,60.03487545423543,
6.0,0.0,resp1,stim/right_resp_img.png,"[-0.5, 0]",right,stim/gold_coin.png,silver,,,,,training,,,gold,val,,,,,0.0,0.0,0.0,0.0,1.0,0.0,2.0,0.0,,,,,,,,,0.0,training_resp,,130.79865675768815,16.213792704977095,2.0,,right,gold,0.0,230.0,2.0,right,2023_Aug_31_1118,habits_v_MRI,5.0,40.0,1.0,5.0,30.0,15.0,5.0,15.0,30.0,30.0,60.0,RR,60.03487545423543,
6.0,0.0,resp1,stim/right_resp_img.png,"[-0.5, 0]",right,stim/gold_coin.png,silver,,,,,training,,,gold,val,,,,,0.0,0.0,0.0,0.0,1.0,0.0,2.0,0.0,,,,,,,,,0.0,training_resp,,131.08204434625804,16.497194369556382,2.0,,right,gold,0.0,230.0,2.0,right,2023_Aug_31_1118,habits_v_MRI,5.0,40.0,1.0,5.0,30.0,15.0,5.0,15.0,30.0,30.0,60.0,RR,60.03487545423543,
6.0,0.0,resp1,stim/right_resp_img.png,"[-0.5, 0]",right,stim/gold_coin.png,silver,,,,,training,,,gold,val,,,,,0.0,0.0,0.0,0.0,1.0,0.0,2.0,0.0,,,,,,,,,0.0,training_resp,,131.38194226752967,16.797070297179744,2.0,,right,gold,0.0,230.0,2.0,right,2023_Aug_31_1118,habits_v_MRI,5.0,40.0,1.0,5.0,30.0,15.0,5.0,15.0,30.0,30.0,60.0,RR,60.03487545423543,
6.0,0.0,resp1,stim/right_resp_img.png,"[-0.5, 0]",right,stim/gold_coin.png,silver,,,,,training,,,gold,val,,,,,0.0,0.0,0.0,0.0,1.0,0.0,2.0,0.0,,,,,,,,,0.0,training_resp,,131.6820398890413,17.097067921888083,2.0,,right,gold,0.0,230.0,2.0,right,2023_Aug_31_1118,habits_v_MRI,5.0,40.0,1.0,5.0,30.0,15.0,5.0,15.0,30.0,30.0,60.0,RR,60.03487545423543,
6.0,0.0,resp1,stim/right_resp_img.png,"[-0.5, 0]",right,stim/gold_coin.png,silver,,,,,training,,,gold,val,,,,,0.0,0.0,0.0,0.0,1.0,0.0,2.0,0.0,,,,,,,,,0.0,training_resp,,131.96524713141844,17.380461961962283,2.0,,right,gold,0.0,230.0,2.0,right,2023_Aug_31_1118,habits_v_MRI,5.0,40.0,1.0,5.0,30.0,15.0,5.0,15.0,30.0,30.0,60.0,RR,60.03487545423543,
6.0,0.0,resp1,stim/right_resp_img.png,"[-0.5, 0]",right,stim/gold_coin.png,silver,,,,,training,,,gold,val,,,,,0.0,0.0,0.0,0.0,1.0,0.0,2.0,0.0,,,,,,,,,0.0,training_resp,,132.26521719107404,17.680385688785464,2.0,9.0,right,gold,1.0,230.0,2.0,right,2023_Aug_31_1118,habits_v_MRI,5.0,40.0,1.0,5.0,30.0,15.0,5.0,15.0,30.0,30.0,60.0,RR,60.03487545423543,
6.0,0.0,resp1,stim/right_resp_img.png,"[-0.5, 0]",right,stim/gold_coin.png,silver,,,,,training,,,gold,val,,,,,0.0,0.0,0.0,0.0,1.0,0.0,2.0,0.0,,,,,,,,,0.0,training_resp,,132.81519934698008,18.230352595914155,2.0,,right,gold,0.0,230.0,2.0,right,2023_Aug_31_1118,habits_v_MRI,5.0,40.0,1.0,5.0,30.0,15.0,5.0,15.0,30.0,30.0,60.0,RR,60.03487545423543,
6.0,0.0,resp1,stim/right_resp_img.png,"[-0.5, 0]",right,stim/gold_coin.png,silver,,,,,training,,,gold,val,,,,,0.0,0.0,0.0,0.0,1.0,0.0,2.0,0.0,,,,,,,,,0.0,training_resp,,133.14842525473796,18.563628355273977,2.0,,right,gold,0.0,230.0,2.0,right,2023_Aug_31_1118,habits_v_MRI,5.0,40.0,1.0,5.0,30.0,15.0,5.0,15.0,30.0,30.0,60.0,RR,60.03487545423543,
6.0,0.0,resp1,stim/right_resp_img.png,"[-0.5, 0]",right,stim/gold_coin.png,silver,,,,,training,,,gold,val,,,,,0.0,0.0,0.0,0.0,1.0,0.0,2.0,0.0,,,,,,,,,0.0,training_resp,,133.398437644355,18.813634879887104,2.0,,right,gold,0.0,230.0,2.0,right,2023_Aug_31_1118,habits_v_MRI,5.0,40.0,1.0,5.0,30.0,15.0,5.0,15.0,30.0,30.0,60.0,RR,60.03487545423543,
6.0,0.0,resp1,stim/right_resp_img.png,"[-0.5, 0]",right,stim/gold_coin.png,silver,,,,,training,,,gold,val,,,,,0.0,0.0,0.0,0.0,1.0,0.0,2.0,0.0,,,,,,,,,0.0,training_resp,,133.89837386319414,19.313546466408297,2.0,,right,gold,0.0,230.0,2.0,right,2023_Aug_31_1118,habits_v_MRI,5.0,40.0,1.0,5.0,30.0,15.0,5.0,15.0,30.0,30.0,60.0,RR,60.03487545423543,
6.0,0.0,resp1,stim/right_resp_img.png,"[-0.5, 0]",right,stim/gold_coin.png,silver,,,,,training,,,gold,val,,,,,0.0,0.0,0.0,0.0,1.0,0.0,2.0,0.0,,,,,,,,,0.0,training_resp,,134.06505426368676,19.48025061958469,2.0,,right,gold,0.0,230.0,2.0,right,2023_Aug_31_1118,habits_v_MRI,5.0,40.0,1.0,5.0,30.0,15.0,5.0,15.0,30.0,30.0,60.0,RR,60.03487545423543,
6.0,0.0,resp1,stim/right_resp_img.png,"[-0.5, 0]",right,stim/gold_coin.png,silver,,,,,training,,,gold,val,,,,,0.0,0.0,0.0,0.0,1.0,0.0,2.0,0.0,,,,,,,,,0.0,training_resp,,134.53190940921195,19.94691163650714,2.0,,right,gold,0.0,230.0,2.0,right,2023_Aug_31_1118,habits_v_MRI,5.0,40.0,1.0,5.0,30.0,15.0,5.0,15.0,30.0,30.0,60.0,RR,60.03487545423543,
6.0,0.0,resp1,stim/right_resp_img.png,"[-0.5, 0]",right,stim/gold_coin.png,silver,,,,,training,,,gold,val,,,,,0.0,0.0,0.0,0.0,1.0,0.0,2.0,0.0,,,,,,,,,0.0,training_resp,,135.11510049388744,20.530213861260563,2.0,,right,gold,0.0,230.0,2.0,right,2023_Aug_31_1118,habits_v_MRI,5.0,40.0,1.0,5.0,30.0,15.0,5.0,15.0,30.0,30.0,60.0,RR,60.03487545423543,
6.0,0.0,resp1,stim/right_resp_img.png,"[-0.5, 0]",right,stim/gold_coin.png,silver,,,,,training,,,gold,val,,,,,0.0,0.0,0.0,0.0,1.0,0.0,2.0,0.0,,,,,,,,,0.0,training_resp,,135.68172816862352,21.09681748971343,2.0,,right,gold,0.0,230.0,2.0,right,2023_Aug_31_1118,habits_v_MRI,5.0,40.0,1.0,5.0,30.0,15.0,5.0,15.0,30.0,30.0,60.0,RR,60.03487545423543,
6.0,0.0,resp1,stim/right_resp_img.png,"[-0.5, 0]",right,stim/gold_coin.png,silver,,,,,training,,,gold,val,,,,,0.0,0.0,0.0,0.0,1.0,0.0,2.0,0.0,,,,,,,,,0.0,training_resp,,136.09822184452787,21.513428757432848,2.0,9.0,right,gold,1.0,230.0,2.0,right,2023_Aug_31_1118,habits_v_MRI,5.0,40.0,1.0,5.0,30.0,15.0,5.0,15.0,30.0,30.0,60.0,RR,60.03487545423543,
6.0,0.0,resp1,stim/right_resp_img.png,"[-0.5, 0]",right,stim/gold_coin.png,silver,,,,,training,,,gold,val,,,,,0.0,0.0,0.0,0.0,1.0,0.0,2.0,0.0,,,,,,,,,0.0,training_resp,,136.91496073291637,22.330092281568795,2.0,,right,gold,0.0,230.0,2.0,right,2023_Aug_31_1118,habits_v_MRI,5.0,40.0,1.0,5.0,30.0,15.0,5.0,15.0,30.0,30.0,60.0,RR,60.03487545423543,
6.0,0.0,resp1,stim/right_resp_img.png,"[-0.5, 0]",right,stim/gold_coin.png,silver,,,,,training,,,gold,val,,,,,0.0,0.0,0.0,0.0,1.0,0.0,2.0,0.0,,,,,,,,,0.0,training_resp,,137.2482241760008,22.66341378726065,2.0,,right,gold,0.0,230.0,2.0,right,2023_Aug_31_1118,habits_v_MRI,5.0,40.0,1.0,5.0,30.0,15.0,5.0,15.0,30.0,30.0,60.0,RR,60.03487545423543,
6.0,0.0,resp1,stim/right_resp_img.png,"[-0.5, 0]",right,stim/gold_coin.png,silver,,,,,training,,,gold,val,,,,,0.0,0.0,0.0,0.0,1.0,0.0,2.0,0.0,,,,,,,,,0.0,training_resp,,137.61502820882015,23.030094656860456,2.0,,right,gold,0.0,230.0,2.0,right,2023_Aug_31_1118,habits_v_MRI,5.0,40.0,1.0,5.0,30.0,15.0,5.0,15.0,30.0,30.0,60.0,RR,60.03487545423543,
6.0,0.0,resp1,stim/right_resp_img.png,"[-0.5, 0]",right,stim/gold_coin.png,silver,,,,,training,,,gold,val,,,,,0.0,0.0,0.0,0.0,1.0,0.0,2.0,0.0,,,,,,,,,0.0,training_resp,,138.31492941407487,23.7300020204857,2.0,,right,gold,0.0,230.0,2.0,right,2023_Aug_31_1118,habits_v_MRI,5.0,40.0,1.0,5.0,30.0,15.0,5.0,15.0,30.0,30.0,60.0,RR,60.03487545423543,
6.0,0.0,resp1,stim/right_resp_img.png,"[-0.5, 0]",right,stim/gold_coin.png,silver,,,,,training,,,gold,val,,,,,0.0,0.0,0.0,0.0,1.0,0.0,2.0,0.0,,,,,,,,,0.0,training_resp,,138.9315393914003,24.346635164227337,2.0,,right,gold,0.0,230.0,2.0,right,2023_Aug_31_1118,habits_v_MRI,5.0,40.0,1.0,5.0,30.0,15.0,5.0,15.0,30.0,30.0,60.0,RR,60.03487545423543,
6.0,0.0,resp1,stim/right_resp_img.png,"[-0.5, 0]",right,stim/gold_coin.png,silver,,,,,training,,,gold,val,,,,,0.0,0.0,0.0,0.0,1.0,0.0,2.0,0.0,,,,,,,,,0.0,training_resp,,139.29808272863738,24.71325943735428,2.0,,right,gold,0.0,230.0,2.0,right,2023_Aug_31_1118,habits_v_MRI,5.0,40.0,1.0,5.0,30.0,15.0,5.0,15.0,30.0,30.0,60.0,RR,60.03487545423543,
6.0,0.0,resp1,stim/right_resp_img.png,"[-0.5, 0]",right,stim/gold_coin.png,silver,,,,,training,,,gold,val,,,,,0.0,0.0,0.0,0.0,1.0,0.0,2.0,0.0,,,,,,,,,0.0,training_resp,,139.86499367910437,25.27989854849875,2.0,,right,gold,0.0,230.0,2.0,right,2023_Aug_31_1118,habits_v_MRI,5.0,40.0,1.0,5.0,30.0,15.0,5.0,15.0,30.0,30.0,60.0,RR,60.03487545423543,
6.0,0.0,resp1,stim/right_resp_img.png,"[-0.5, 0]",right,stim/gold_coin.png,silver,,,,,training,,,gold,val,,,,,0.0,0.0,0.0,0.0,1.0,0.0,2.0,0.0,,,,,,,,,0.0,training_resp,,140.31485991482623,25.72987973690033,2.0,,right,gold,0.0,230.0,2.0,right,2023_Aug_31_1118,habits_v_MRI,5.0,40.0,1.0,5.0,30.0,15.0,5.0,15.0,30.0,30.0,60.0,RR,60.03487545423543,
6.0,0.0,resp1,stim/right_resp_img.png,"[-0.5, 0]",right,stim/gold_coin.png,silver,,,,,training,,,gold,val,,,,,0.0,0.0,0.0,0.0,1.0,0.0,2.0,0.0,,,,,,,,,0.0,training_resp,,140.68124724528752,26.096451518824324,2.0,17.0,right,gold,1.0,230.0,2.0,right,2023_Aug_31_1118,habits_v_MRI,5.0,40.0,1.0,5.0,30.0,15.0,5.0,15.0,30.0,30.0,60.0,RR,60.03487545423543,
6.0,0.0,resp1,stim/right_resp_img.png,"[-0.5, 0]",right,stim/gold_coin.png,silver,,,,,training,,,gold,val,,,,,0.0,0.0,0.0,0.0,1.0,0.0,2.0,0.0,,,,,,,,,0.0,training_resp,,141.34802896203473,26.7631575781852,2.0,,right,gold,0.0,230.0,2.0,right,2023_Aug_31_1118,habits_v_MRI,5.0,40.0,1.0,5.0,30.0,15.0,5.0,15.0,30.0,30.0,60.0,RR,60.03487545423543,
6.0,0.0,resp1,stim/right_resp_img.png,"[-0.5, 0]",right,stim/gold_coin.png,silver,,,,,training,,,gold,val,,,,,0.0,0.0,0.0,0.0,1.0,0.0,2.0,0.0,,,,,,,,,0.0,training_resp,,141.69796167686582,27.113155686762184,2.0,,right,gold,0.0,230.0,2.0,right,2023_Aug_31_1118,habits_v_MRI,5.0,40.0,1.0,5.0,30.0,15.0,5.0,15.0,30.0,30.0,60.0,RR,60.03487545423543,
6.0,0.0,resp1,stim/right_resp_img.png,"[-0.5, 0]",right,stim/gold_coin.png,silver,,,,,training,,,gold,val,,,,,0.0,0.0,0.0,0.0,1.0,0.0,2.0,0.0,,,,,,,,,0.0,training_resp,,142.03127350541763,27.446432325989008,2.0,,right,gold,0.0,230.0,2.0,right,2023_Aug_31_1118,habits_v_MRI,5.0,40.0,1.0,5.0,30.0,15.0,5.0,15.0,30.0,30.0,60.0,RR,60.03487545423543,
6.0,0.0,resp1,stim/right_resp_img.png,"[-0.5, 0]",right,stim/gold_coin.png,silver,,,,,training,,,gold,val,,,,,0.0,0.0,0.0,0.0,1.0,0.0,2.0,0.0,,,,,,,,,0.0,training_resp,,142.36457360419445,27.77973447740078,2.0,,right,gold,0.0,230.0,2.0,right,2023_Aug_31_1118,habits_v_MRI,5.0,40.0,1.0,5.0,30.0,15.0,5.0,15.0,30.0,30.0,60.0,RR,60.03487545423543,
6.0,0.0,resp1,stim/right_resp_img.png,"[-0.5, 0]",right,stim/gold_coin.png,silver,,,,,training,,,gold,val,,,,,0.0,0.0,0.0,0.0,1.0,0.0,2.0,0.0,,,,,,,,,0.0,training_resp,,143.03114389069378,28.446339073823765,2.0,,right,gold,0.0,230.0,2.0,right,2023_Aug_31_1118,habits_v_MRI,5.0,40.0,1.0,5.0,30.0,15.0,5.0,15.0,30.0,30.0,60.0,RR,60.03487545423543,
6.0,0.0,resp1,stim/right_resp_img.png,"[-0.5, 0]",right,stim/gold_coin.png,silver,,,,,training,,,gold,val,,,,,0.0,0.0,0.0,0.0,1.0,0.0,2.0,0.0,,,,,,,,,0.0,training_resp,,143.7811218239367,29.196284456644207,2.0,,right,gold,0.0,230.0,2.0,right,2023_Aug_31_1118,habits_v_MRI,5.0,40.0,1.0,5.0,30.0,15.0,5.0,15.0,30.0,30.0,60.0,RR,60.03487545423543,
6.0,0.0,resp1,stim/right_resp_img.png,"[-0.5, 0]",right,stim/gold_coin.png,silver,,,,,training,,,gold,val,,,,,0.0,0.0,0.0,0.0,1.0,0.0,2.0,0.0,,,,,,,,,0.0,training_resp,,144.21454224153422,29.629639480495825,2.0,,right,gold,0.0,230.0,2.0,right,2023_Aug_31_1118,habits_v_MRI,5.0,40.0,1.0,5.0,30.0,15.0,5.0,15.0,30.0,30.0,60.0,RR,60.03487545423543,
6.0,0.0,resp1,stim/right_resp_img.png,"[-0.5, 0]",right,stim/gold_coin.png,silver,,,,,training,,,gold,val,,,,,0.0,0.0,0.0,0.0,1.0,0.0,2.0,0.0,,,,,,,,,0.0,training_resp,,144.5479226897005,29.96306919399649,2.0,,right,gold,0.0,230.0,2.0,right,2023_Aug_31_1118,habits_v_MRI,5.0,40.0,1.0,5.0,30.0,15.0,5.0,15.0,30.0,30.0,60.0,RR,60.03487545423543,
6.0,0.0,resp1,stim/right_resp_img.png,"[-0.5, 0]",right,stim/gold_coin.png,silver,,,,,training,,,gold,val,,,,,0.0,0.0,0.0,0.0,1.0,0.0,2.0,0.0,,,,,,,,,0.0,training_resp,,144.93038840126246,30.34574692230672,2.0,,right,gold,0.0,230.0,2.0,right,2023_Aug_31_1118,habits_v_MRI,5.0,40.0,1.0,5.0,30.0,15.0,5.0,15.0,30.0,30.0,60.0,RR,60.03487545423543,
6.0,0.0,resp1,stim/right_resp_img.png,"[-0.5, 0]",right,stim/gold_coin.png,silver,,,,,training,,,gold,val,,,,,0.0,0.0,0.0,0.0,1.0,0.0,2.0,0.0,,,,,,,,,0.0,training_resp,,145.28110085683875,30.69627492618747,2.0,,right,gold,0.0,230.0,2.0,right,2023_Aug_31_1118,habits_v_MRI,5.0,40.0,1.0,5.0,30.0,15.0,5.0,15.0,30.0,30.0,60.0,RR,60.03487545423543,
6.0,0.0,resp1,stim/right_resp_img.png,"[-0.5, 0]",right,stim/gold_coin.png,silver,,,,,training,,,gold,val,,,,,0.0,0.0,0.0,0.0,1.0,0.0,2.0,0.0,,,,,,,,,0.0,training_resp,,145.63124470878392,31.04620089614764,2.0,,right,gold,0.0,230.0,2.0,right,2023_Aug_31_1118,habits_v_MRI,5.0,40.0,1.0,5.0,30.0,15.0,5.0,15.0,30.0,30.0,60.0,RR,60.03487545423543,
6.0,0.0,resp1,stim/right_resp_img.png,"[-0.5, 0]",right,stim/gold_coin.png,silver,,,,,training,,,gold,val,,,,,0.0,0.0,0.0,0.0,1.0,0.0,2.0,0.0,,,,,,,,,0.0,training_resp,,145.96429906738922,31.37946991110221,2.0,,right,gold,0.0,230.0,2.0,right,2023_Aug_31_1118,habits_v_MRI,5.0,40.0,1.0,5.0,30.0,15.0,5.0,15.0,30.0,30.0,60.0,RR,60.03487545423543,
6.0,0.0,resp1,stim/right_resp_img.png,"[-0.5, 0]",right,stim/gold_coin.png,silver,,,,,training,,,gold,val,,,,,0.0,0.0,0.0,0.0,1.0,0.0,2.0,0.0,,,,,,,,,0.0,training_resp,,146.31434204266407,31.729524615919217,2.0,,right,gold,0.0,230.0,2.0,right,2023_Aug_31_1118,habits_v_MRI,5.0,40.0,1.0,5.0,30.0,15.0,5.0,15.0,30.0,30.0,60.0,RR,60.03487545423543,
6.0,0.0,resp1,stim/right_resp_img.png,"[-0.5, 0]",right,stim/gold_coin.png,silver,,,,,training,,,gold,val,,,,,0.0,0.0,0.0,0.0,1.0,0.0,2.0,0.0,,,,,,,,,0.0,training_resp,,146.96429290925153,32.37943794718012,2.0,,right,gold,0.0,230.0,2.0,right,2023_Aug_31_1118,habits_v_MRI,5.0,40.0,1.0,5.0,30.0,15.0,5.0,15.0,30.0,30.0,60.0,RR,60.03487545423543,
6.0,0.0,resp1,stim/right_resp_img.png,"[-0.5, 0]",right,stim/gold_coin.png,silver,,,,,training,,,gold,val,,,,,0.0,0.0,0.0,0.0,1.0,0.0,2.0,0.0,,,,,,,,,0.0,training_resp,,147.3809537354391,32.79612281941809,2.0,,right,gold,0.0,230.0,2.0,right,2023_Aug_31_1118,habits_v_MRI,5.0,40.0,1.0,5.0,30.0,15.0,5.0,15.0,30.0,30.0,60.0,RR,60.03487545423543,
6.0,0.0,resp1,stim/right_resp_img.png,"[-0.5, 0]",right,stim/gold_coin.png,silver,,,,,training,,,gold,val,,,,,0.0,0.0,0.0,0.0,1.0,0.0,2.0,0.0,,,,,,,,,0.0,training_resp,,147.69787399633788,33.11281493515708,2.0,,right,gold,0.0,230.0,2.0,right,2023_Aug_31_1118,habits_v_MRI,5.0,40.0,1.0,5.0,30.0,15.0,5.0,15.0,30.0,30.0,60.0,RR,60.03487545423543,
6.0,0.0,resp1,stim/right_resp_img.png,"[-0.5, 0]",right,stim/gold_coin.png,silver,,,,,training,,,gold,val,,,,,0.0,0.0,0.0,0.0,1.0,0.0,2.0,0.0,,,,,,,,,0.0,training_resp,,147.9976669352036,33.41273954161443,2.0,11.0,right,gold,1.0,230.0,2.0,right,2023_Aug_31_1118,habits_v_MRI,5.0,40.0,1.0,5.0,30.0,15.0,5.0,15.0,30.0,30.0,60.0,RR,60.03487545423543,
6.0,0.0,resp1,stim/right_resp_img.png,"[-0.5, 0]",right,stim/gold_coin.png,silver,,,,,training,,,gold,val,,,,,0.0,0.0,0.0,0.0,1.0,0.0,2.0,0.0,,,,,,,,,0.0,training_resp,,148.61414817767218,34.02932605915703,2.0,,right,gold,0.0,230.0,2.0,right,2023_Aug_31_1118,habits_v_MRI,5.0,40.0,1.0,5.0,30.0,15.0,5.0,15.0,30.0,30.0,60.0,RR,60.03487545423543,
6.0,0.0,resp1,stim/right_resp_img.png,"[-0.5, 0]",right,stim/gold_coin.png,silver,,,,,training,,,gold,val,,,,,0.0,0.0,0.0,0.0,1.0,0.0,2.0,0.0,,,,,,,,,0.0,training_resp,,148.914154013386,34.32934714364819,2.0,,right,gold,0.0,230.0,2.0,right,2023_Aug_31_1118,habits_v_MRI,5.0,40.0,1.0,5.0,30.0,15.0,5.0,15.0,30.0,30.0,60.0,RR,60.03487545423543,
6.0,0.0,resp1,stim/right_resp_img.png,"[-0.5, 0]",right,stim/gold_coin.png,silver,,,,,training,,,gold,val,,,,,0.0,0.0,0.0,0.0,1.0,0.0,2.0,0.0,,,,,,,,,0.0,training_resp,,149.23082706774585,34.645967413904145,2.0,,right,gold,0.0,230.0,2.0,right,2023_Aug_31_1118,habits_v_MRI,5.0,40.0,1.0,5.0,30.0,15.0,5.0,15.0,30.0,30.0,60.0,RR,60.03487545423543,
6.0,0.0,resp1,stim/right_resp_img.png,"[-0.5, 0]",right,stim/gold_coin.png,silver,,,,,training,,,gold,val,,,,,0.0,0.0,0.0,0.0,1.0,0.0,2.0,0.0,,,,,,,,,0.0,training_resp,,149.84745815885253,35.262575338361785,2.0,,right,gold,0.0,230.0,2.0,right,2023_Aug_31_1118,habits_v_MRI,5.0,40.0,1.0,5.0,30.0,15.0,5.0,15.0,30.0,30.0,60.0,RR,60.03487545423543,
6.0,0.0,resp1,stim/right_resp_img.png,"[-0.5, 0]",right,stim/gold_coin.png,silver,,,,,training,,,gold,val,,,,,0.0,0.0,0.0,0.0,1.0,0.0,2.0,0.0,,,,,,,,,0.0,training_resp,,150.23084994102828,35.64595978939906,2.0,,right,gold,0.0,230.0,2.0,right,2023_Aug_31_1118,habits_v_MRI,5.0,40.0,1.0,5.0,30.0,15.0,5.0,15.0,30.0,30.0,60.0,RR,60.03487545423543,
6.0,0.0,resp1,stim/right_resp_img.png,"[-0.5, 0]",right,stim/gold_coin.png,silver,,,,,training,,,gold,val,,,,,0.0,0.0,0.0,0.0,1.0,0.0,2.0,0.0,,,,,,,,,0.0,training_resp,,150.5477549531497,35.96275893971324,2.0,,right,gold,0.0,230.0,2.0,right,2023_Aug_31_1118,habits_v_MRI,5.0,40.0,1.0,5.0,30.0,15.0,5.0,15.0,30.0,30.0,60.0,RR,60.03487545423543,
6.0,0.0,resp1,stim/right_resp_img.png,"[-0.5, 0]",right,stim/gold_coin.png,silver,,,,,training,,,gold,val,,,,,0.0,0.0,0.0,0.0,1.0,0.0,2.0,0.0,,,,,,,,,0.0,training_resp,,150.88084391481243,36.29591006971896,2.0,,right,gold,0.0,230.0,2.0,right,2023_Aug_31_1118,habits_v_MRI,5.0,40.0,1.0,5.0,30.0,15.0,5.0,15.0,30.0,30.0,60.0,RR,60.03487545423543,
6.0,0.0,resp1,stim/right_resp_img.png,"[-0.5, 0]",right,stim/gold_coin.png,silver,,,,,training,,,gold,val,,,,,0.0,0.0,0.0,0.0,1.0,0.0,2.0,0.0,,,,,,,,,0.0,training_resp,,151.1807506333571,36.59584728558548,2.0,,right,gold,0.0,230.0,2.0,right,2023_Aug_31_1118,habits_v_MRI,5.0,40.0,1.0,5.0,30.0,15.0,5.0,15.0,30.0,30.0,60.0,RR,60.03487545423543,
6.0,0.0,resp1,stim/right_resp_img.png,"[-0.5, 0]",right,stim/gold_coin.png,silver,,,,,training,,,gold,val,,,,,0.0,0.0,0.0,0.0,1.0,0.0,2.0,0.0,,,,,,,,,0.0,training_resp,,151.51395806623623,36.92914415872656,2.0,,right,gold,0.0,230.0,2.0,right,2023_Aug_31_1118,habits_v_MRI,5.0,40.0,1.0,5.0,30.0,15.0,5.0,15.0,30.0,30.0,60.0,RR,60.03487545423543,
6.0,0.0,resp1,stim/right_resp_img.png,"[-0.5, 0]",right,stim/gold_coin.png,silver,,,,,training,,,gold,val,,,,,0.0,0.0,0.0,0.0,1.0,0.0,2.0,0.0,,,,,,,,,0.0,training_resp,,151.847322385991,37.26247651455924,2.0,,right,gold,0.0,230.0,2.0,right,2023_Aug_31_1118,habits_v_MRI,5.0,40.0,1.0,5.0,30.0,15.0,5.0,15.0,30.0,30.0,60.0,RR,60.03487545423543,
6.0,0.0,resp1,stim/right_resp_img.png,"[-0.5, 0]",right,stim/gold_coin.png,silver,,,,,training,,,gold,val,,,,,0.0,0.0,0.0,0.0,1.0,0.0,2.0,0.0,,,,,,,,,0.0,training_resp,,152.1806949165184,37.59582411916927,2.0,17.0,right,gold,1.0,230.0,2.0,right,2023_Aug_31_1118,habits_v_MRI,5.0,40.0,1.0,5.0,30.0,15.0,5.0,15.0,30.0,30.0,60.0,RR,60.03487545423543,
6.0,0.0,resp1,stim/right_resp_img.png,"[-0.5, 0]",right,stim/gold_coin.png,silver,,,,,training,,,gold,val,,,,,0.0,0.0,0.0,0.0,1.0,0.0,2.0,0.0,,,,,,,,,0.0,training_resp,,152.84716403321363,38.26236889325082,2.0,,right,gold,0.0,230.0,2.0,right,2023_Aug_31_1118,habits_v_MRI,5.0,40.0,1.0,5.0,30.0,15.0,5.0,15.0,30.0,30.0,60.0,RR,60.03487545423543,
6.0,0.0,resp1,stim/right_resp_img.png,"[-0.5, 0]",right,stim/gold_coin.png,silver,,,,,training,,,gold,val,,,,,0.0,0.0,0.0,0.0,1.0,0.0,2.0,0.0,,,,,,,,,0.0,training_resp,,153.18072893307544,38.59573497250676,2.0,,right,gold,0.0,230.0,2.0,right,2023_Aug_31_1118,habits_v_MRI,5.0,40.0,1.0,5.0,30.0,15.0,5.0,15.0,30.0,30.0,60.0,RR,60.03487545423543,
6.0,0.0,resp1,stim/right_resp_img.png,"[-0.5, 0]",right,stim/gold_coin.png,silver,,,,,training,,,gold,val,,,,,0.0,0.0,0.0,0.0,1.0,0.0,2.0,0.0,,,,,,,,,0.0,training_resp,,153.48062450811267,38.8956971145235,2.0,,right,gold,0.0,230.0,2.0,right,2023_Aug_31_1118,habits_v_MRI,5.0,40.0,1.0,5.0,30.0,15.0,5.0,15.0,30.0,30.0,60.0,RR,60.03487545423543,
6.0,0.0,resp1,stim/right_resp_img.png,"[-0.5, 0]",right,stim/gold_coin.png,silver,,,,,training,,,gold,val,,,,,0.0,0.0,0.0,0.0,1.0,0.0,2.0,0.0,,,,,,,,,0.0,training_resp,,153.79720753617585,39.21241708821617,2.0,,right,gold,0.0,230.0,2.0,right,2023_Aug_31_1118,habits_v_MRI,5.0,40.0,1.0,5.0,30.0,15.0,5.0,15.0,30.0,30.0,60.0,RR,60.03487545423543,
6.0,0.0,resp1,stim/right_resp_img.png,"[-0.5, 0]",right,stim/gold_coin.png,silver,,,,,training,,,gold,val,,,,,0.0,0.0,0.0,0.0,1.0,0.0,2.0,0.0,,,,,,,,,0.0,training_resp,,154.13054693001322,39.54564827424474,2.0,,right,gold,0.0,230.0,2.0,right,2023_Aug_31_1118,habits_v_MRI,5.0,40.0,1.0,5.0,30.0,15.0,5.0,15.0,30.0,30.0,60.0,RR,60.03487545423543,
6.0,0.0,resp1,stim/right_resp_img.png,"[-0.5, 0]",right,stim/gold_coin.png,silver,,,,,training,,,gold,val,,,,,0.0,0.0,0.0,0.0,1.0,0.0,2.0,0.0,,,,,,,,,0.0,training_resp,,154.49714862322435,39.9123265047092,2.0,,right,gold,0.0,230.0,2.0,right,2023_Aug_31_1118,habits_v_MRI,5.0,40.0,1.0,5.0,30.0,15.0,5.0,15.0,30.0,30.0,60.0,RR,60.03487545423543,
6.0,0.0,resp1,stim/right_resp_img.png,"[-0.5, 0]",right,stim/gold_coin.png,silver,,,,,training,,,gold,val,,,,,0.0,0.0,0.0,0.0,1.0,0.0,2.0,0.0,,,,,,,,,0.0,training_resp,,154.81380584230646,40.22896906151436,2.0,,right,gold,0.0,230.0,2.0,right,2023_Aug_31_1118,habits_v_MRI,5.0,40.0,1.0,5.0,30.0,15.0,5.0,15.0,30.0,30.0,60.0,RR,60.03487545423543,
6.0,0.0,resp1,stim/right_resp_img.png,"[-0.5, 0]",right,stim/gold_coin.png,silver,,,,,training,,,gold,val,,,,,0.0,0.0,0.0,0.0,1.0,0.0,2.0,0.0,,,,,,,,,0.0,training_resp,,155.147220013896,40.56236417219043,2.0,,right,gold,0.0,230.0,2.0,right,2023_Aug_31_1118,habits_v_MRI,5.0,40.0,1.0,5.0,30.0,15.0,5.0,15.0,30.0,30.0,60.0,RR,60.03487545423543,
6.0,0.0,resp1,stim/right_resp_img.png,"[-0.5, 0]",right,stim/gold_coin.png,silver,,,,,training,,,gold,val,,,,,0.0,0.0,0.0,0.0,1.0,0.0,2.0,0.0,,,,,,,,,0.0,training_resp,,155.49704070854932,40.91222122940235,2.0,,right,gold,0.0,230.0,2.0,right,2023_Aug_31_1118,habits_v_MRI,5.0,40.0,1.0,5.0,30.0,15.0,5.0,15.0,30.0,30.0,60.0,RR,60.03487545423543,
6.0,0.0,resp1,stim/right_resp_img.png,"[-0.5, 0]",right,stim/gold_coin.png,silver,,,,,training,,,gold,val,,,,,0.0,0.0,0.0,0.0,1.0,0.0,2.0,0.0,,,,,,,,,0.0,training_resp,,155.84707811218686,41.26229939400218,2.0,,right,gold,0.0,230.0,2.0,right,2023_Aug_31_1118,habits_v_MRI,5.0,40.0,1.0,5.0,30.0,15.0,5.0,15.0,30.0,30.0,60.0,RR,60.03487545423543,
6.0,0.0,resp1,stim/right_resp_img.png,"[-0.5, 0]",right,stim/gold_coin.png,silver,,,,,training,,,gold,val,,,,,0.0,0.0,0.0,0.0,1.0,0.0,2.0,0.0,,,,,,,,,0.0,training_resp,,156.16368342679925,41.57884723250754,2.0,,right,gold,0.0,230.0,2.0,right,2023_Aug_31_1118,habits_v_MRI,5.0,40.0,1.0,5.0,30.0,15.0,5.0,15.0,30.0,30.0,60.0,RR,60.03487545423543,
6.0,0.0,resp1,stim/right_resp_img.png,"[-0.5, 0]",right,stim/gold_coin.png,silver,,,,,training,,,gold,val,,,,,0.0,0.0,0.0,0.0,1.0,0.0,2.0,0.0,,,,,,,,,0.0,training_resp,,156.48049870575778,41.89559301221743,2.0,,right,gold,0.0,230.0,2.0,right,2023_Aug_31_1118,habits_v_MRI,5.0,40.0,1.0,5.0,30.0,15.0,5.0,15.0,30.0,30.0,60.0,RR,60.03487545423543,
6.0,0.0,resp1,stim/right_resp_img.png,"[-0.5, 0]",right,stim/gold_coin.png,silver,,,,,training,,,gold,val,,,,,0.0,0.0,0.0,0.0,1.0,0.0,2.0,0.0,,,,,,,,,0.0,training_resp,,156.81373517005704,42.22887991485186,2.0,,right,gold,0.0,230.0,2.0,right,2023_Aug_31_1118,habits_v_MRI,5.0,40.0,1.0,5.0,30.0,15.0,5.0,15.0,30.0,30.0,60.0,RR,60.03487545423543,
6.0,0.0,resp1,stim/right_resp_img.png,"[-0.5, 0]",right,stim/gold_coin.png,silver,,,,,training,,,gold,val,,,,,0.0,0.0,0.0,0.0,1.0,0.0,2.0,0.0,,,,,,,,,0.0,training_resp,,157.14705432998016,42.56221139105037,2.0,,right,gold,0.0,230.0,2.0,right,2023_Aug_31_1118,habits_v_MRI,5.0,40.0,1.0,5.0,30.0,15.0,5.0,15.0,30.0,30.0,60.0,RR,60.03487545423543,
6.0,0.0,resp1,stim/right_resp_img.png,"[-0.5, 0]",right,stim/gold_coin.png,silver,,,,,training,,,gold,val,,,,,0.0,0.0,0.0,0.0,1.0,0.0,2.0,0.0,,,,,,,,,0.0,training_resp,,157.6970476291608,43.11218123068102,2.0,,right,gold,0.0,230.0,2.0,right,2023_Aug_31_1118,habits_v_MRI,5.0,40.0,1.0,5.0,30.0,15.0,5.0,15.0,30.0,30.0,60.0,RR,60.03487545423543,
6.0,0.0,resp1,stim/right_resp_img.png,"[-0.5, 0]",right,stim/gold_coin.png,silver,,,,,training,,,gold,val,,,,,0.0,0.0,0.0,0.0,1.0,0.0,2.0,0.0,,,,,,,,,0.0,training_resp,,158.3802739912644,43.79541404405609,2.0,,right,gold,0.0,230.0,2.0,right,2023_Aug_31_1118,habits_v_MRI,5.0,40.0,1.0,5.0,30.0,15.0,5.0,15.0,30.0,30.0,60.0,RR,60.03487545423543,
6.0,0.0,resp1,stim/right_resp_img.png,"[-0.5, 0]",right,stim/gold_coin.png,silver,,,,,training,,,gold,val,,,,,0.0,0.0,0.0,0.0,1.0,0.0,2.0,0.0,,,,,,,,,0.0,training_resp,,158.996886607958,44.41203252552077,2.0,19.0,right,gold,1.0,230.0,2.0,right,2023_Aug_31_1118,habits_v_MRI,5.0,40.0,1.0,5.0,30.0,15.0,5.0,15.0,30.0,30.0,60.0,RR,60.03487545423543,
6.0,0.0,resp1,stim/right_resp_img.png,"[-0.5, 0]",right,stim/gold_coin.png,silver,,,,,training,,,gold,val,,,,,0.0,0.0,0.0,0.0,1.0,0.0,2.0,0.0,,,,,,,,,0.0,ITI_start,26.666666666666668,159.44640945270658,44.86206121975556,,,,,,230.0,2.0,right,2023_Aug_31_1118,habits_v_MRI,5.0,40.0,1.0,5.0,30.0,15.0,5.0,15.0,30.0,30.0,60.0,RR,60.03487545423543,
6.0,1.0,resp2,stim/left_resp_img.png,"[0.5, 0]",left,stim/silver_coin.png,silver,,,,,training,,,silver,deval,,,,,0.0,0.0,0.0,0.0,1.0,1.0,3.0,1.0,,,,,,,,,0.0,training_period_start,37.5,186.14978796849027,0.0,3.0,7.0,,,,230.0,2.0,right,2023_Aug_31_1118,habits_v_MRI,5.0,40.0,1.0,5.0,30.0,15.0,5.0,15.0,30.0,30.0,60.0,RR,60.03487545423543,
6.0,1.0,resp2,stim/left_resp_img.png,"[0.5, 0]",left,stim/silver_coin.png,silver,,,,,training,,,silver,deval,,,,,0.0,0.0,0.0,0.0,1.0,1.0,3.0,1.0,,,,,,,,,0.0,training_resp,,186.7952589169145,0.6648603696376085,3.0,,left,silver,0.0,230.0,2.0,right,2023_Aug_31_1118,habits_v_MRI,5.0,40.0,1.0,5.0,30.0,15.0,5.0,15.0,30.0,30.0,60.0,RR,60.03487545423543,
6.0,1.0,resp2,stim/left_resp_img.png,"[0.5, 0]",left,stim/silver_coin.png,silver,,,,,training,,,silver,deval,,,,,0.0,0.0,0.0,0.0,1.0,1.0,3.0,1.0,,,,,,,,,0.0,training_resp,,187.1951630841941,1.0648029521107674,3.0,,left,silver,0.0,230.0,2.0,right,2023_Aug_31_1118,habits_v_MRI,5.0,40.0,1.0,5.0,30.0,15.0,5.0,15.0,30.0,30.0,60.0,RR,60.03487545423543,
6.0,1.0,resp2,stim/left_resp_img.png,"[0.5, 0]",left,stim/silver_coin.png,silver,,,,,training,,,silver,deval,,,,,0.0,0.0,0.0,0.0,1.0,1.0,3.0,1.0,,,,,,,,,0.0,training_resp,,187.4784081554972,1.348107845289633,3.0,,left,silver,0.0,230.0,2.0,right,2023_Aug_31_1118,habits_v_MRI,5.0,40.0,1.0,5.0,30.0,15.0,5.0,15.0,30.0,30.0,60.0,RR,60.03487545423543,
6.0,1.0,resp2,stim/left_resp_img.png,"[0.5, 0]",left,stim/silver_coin.png,silver,,,,,training,,,silver,deval,,,,,0.0,0.0,0.0,0.0,1.0,1.0,3.0,1.0,,,,,,,,,0.0,training_resp,,187.81177687388845,1.6815243628807366,3.0,,left,silver,0.0,230.0,2.0,right,2023_Aug_31_1118,habits_v_MRI,5.0,40.0,1.0,5.0,30.0,15.0,5.0,15.0,30.0,30.0,60.0,RR,60.03487545423543,
6.0,1.0,resp2,stim/left_resp_img.png,"[0.5, 0]",left,stim/silver_coin.png,silver,,,,,training,,,silver,deval,,,,,0.0,0.0,0.0,0.0,1.0,1.0,3.0,1.0,,,,,,,,,0.0,training_resp,,188.17861140426248,2.0480826555285603,3.0,,left,silver,0.0,230.0,2.0,right,2023_Aug_31_1118,habits_v_MRI,5.0,40.0,1.0,5.0,30.0,15.0,5.0,15.0,30.0,30.0,60.0,RR,60.03487545423543,
6.0,1.0,resp2,stim/left_resp_img.png,"[0.5, 0]",left,stim/silver_coin.png,silver,,,,,training,,,silver,deval,,,,,0.0,0.0,0.0,0.0,1.0,1.0,3.0,1.0,,,,,,,,,0.0,training_resp,,188.47837941744365,2.348117522429675,3.0,,left,silver,0.0,230.0,2.0,right,2023_Aug_31_1118,habits_v_MRI,5.0,40.0,1.0,5.0,30.0,15.0,5.0,15.0,30.0,30.0,60.0,RR,60.03487545423543,
6.0,1.0,resp2,stim/left_resp_img.png,"[0.5, 0]",left,stim/silver_coin.png,silver,,,,,training,,,silver,deval,,,,,0.0,0.0,0.0,0.0,1.0,1.0,3.0,1.0,,,,,,,,,0.0,training_resp,,188.8284517170396,2.698045545257628,3.0,9.0,left,silver,1.0,230.0,2.0,right,2023_Aug_31_1118,habits_v_MRI,5.0,40.0,1.0,5.0,30.0,15.0,5.0,15.0,30.0,30.0,60.0,RR,60.03487545423543,
6.0,1.0,resp2,stim/left_resp_img.png,"[0.5, 0]",left,stim/silver_coin.png,silver,,,,,training,,,silver,deval,,,,,0.0,0.0,0.0,0.0,1.0,1.0,3.0,1.0,,,,,,,,,0.0,training_resp,,189.46157319983467,3.331342389108613,3.0,,left,silver,0.0,230.0,2.0,right,2023_Aug_31_1118,habits_v_MRI,5.0,40.0,1.0,5.0,30.0,15.0,5.0,15.0,30.0,30.0,60.0,RR,60.03487545423543,
6.0,1.0,resp2,stim/left_resp_img.png,"[0.5, 0]",left,stim/silver_coin.png,silver,,,,,training,,,silver,deval,,,,,0.0,0.0,0.0,0.0,1.0,1.0,3.0,1.0,,,,,,,,,0.0,training_resp,,189.76154325949028,3.63130394439213,3.0,,left,silver,0.0,230.0,2.0,right,2023_Aug_31_1118,habits_v_MRI,5.0,40.0,1.0,5.0,30.0,15.0,5.0,15.0,30.0,30.0,60.0,RR,60.03487545423543,
6.0,1.0,resp2,stim/left_resp_img.png,"[0.5, 0]",left,stim/silver_coin.png,silver,,,,,training,,,silver,deval,,,,,0.0,0.0,0.0,0.0,1.0,1.0,3.0,1.0,,,,,,,,,0.0,training_resp,,190.1115545639768,3.981349852168933,3.0,,left,silver,0.0,230.0,2.0,right,2023_Aug_31_1118,habits_v_MRI,5.0,40.0,1.0,5.0,30.0,15.0,5.0,15.0,30.0,30.0,60.0,RR,60.03487545423543,
6.0,1.0,resp2,stim/left_resp_img.png,"[0.5, 0]",left,stim/silver_coin.png,silver,,,,,training,,,silver,deval,,,,,0.0,0.0,0.0,0.0,1.0,1.0,3.0,1.0,,,,,,,,,0.0,training_resp,,190.4284982846584,4.297969829291105,3.0,,left,silver,0.0,230.0,2.0,right,2023_Aug_31_1118,habits_v_MRI,5.0,40.0,1.0,5.0,30.0,15.0,5.0,15.0,30.0,30.0,60.0,RR,60.03487545423543,
