list,trial_num_python,condition,stimulus,position,corrResp,coin_img,devalued_coin,stimulus_choice1,stimulus_choice2,position1,position2,phase,corrResp1,corrResp2,outcome,cond_val,outcome_choice1,outcome_choice2,cond_val1,cond_val2,blockLoop.thisRepN,blockLoop.thisTrialN,blockLoop.thisN,blockLoop.thisIndex,trialLoop.thisRepN,trialLoop.thisTrialN,trialLoop.thisN,trialLoop.thisIndex,choice_trialLoop.thisRepN,choice_trialLoop.thisTrialN,choice_trialLoop.thisN,choice_trialLoop.thisIndex,contingency_trialLoop.thisRepN,contingency_trialLoop.thisTrialN,contingency_trialLoop.thisN,contingency_trialLoop.thisIndex,event,duration,globalClock_t,routineClock_t,trial,nResp_untilRnf,resp,wasRnf,n_repeat_training,credits_per_rnf,cost_response,min_resp_bet_rnf,max_resp_bet_rnf,mean_resp_bet_rnf,sigma_resp_bet_rnf,min_ITI,max_ITI,min_trial_duration,max_trial_duration,schedule,participant,age,gender,ethnicity,hand,date,expName,frameRate,Unnamed: 65
1.0,0.0,resp1,stim/up_resp_img.png,"[0, 0.25]",down,stim/silver_coin.png,silver,,,,,training,,,silver,deval,,,,,0.0,0.0,0.0,0.0,0.0,0.0,0.0,0.0,,,,,,,,,instr before block,6.0,0.0057341645515407,,,,,,5.0,40.0,1.0,5.0,30.0,15.0,5.0,15.0,30.0,30.0,60.0,RR,1.0,18.0,m,,right,2020_Feb_10_1715,habits_v_MRI,59.98773888812012,
1.0,0.0,resp1,stim/up_resp_img.png,"[0, 0.25]",down,stim/silver_coin.png,silver,,,,,training,,,silver,deval,,,,,0.0,0.0,0.0,0.0,0.0,0.0,0.0,0.0,,,,,,,,,training period start,60.0,6.039474945944676,0.0,0.0,13.0,,,5.0,40.0,1.0,5.0,30.0,15.0,5.0,15.0,30.0,30.0,60.0,RR,1.0,18.0,m,,right,2020_Feb_10_1715,habits_v_MRI,59.98773888812012,
1.0,0.0,resp1,stim/up_resp_img.png,"[0, 0.25]",down,stim/silver_coin.png,silver,,,,,training,,,silver,deval,,,,,0.0,0.0,0.0,0.0,0.0,0.0,0.0,0.0,,,,,,,,,training resp,,7.685898336316313,1.666513493644743,0.0,,down,0.0,5.0,40.0,1.0,5.0,30.0,15.0,5.0,15.0,30.0,30.0,60.0,RR,1.0,18.0,m,,right,2020_Feb_10_1715,habits_v_MRI,59.98773888812012,
1.0,0.0,resp1,stim/up_resp_img.png,"[0, 0.25]",down,stim/silver_coin.png,silver,,,,,training,,,silver,deval,,,,,0.0,0.0,0.0,0.0,0.0,0.0,0.0,0.0,,,,,,,,,training resp,,8.869386910067988,2.850211446217145,0.0,,down,0.0,5.0,40.0,1.0,5.0,30.0,15.0,5.0,15.0,30.0,30.0,60.0,RR,1.0,18.0,m,,right,2020_Feb_10_1715,habits_v_MRI,59.98773888812012,
1.0,0.0,resp1,stim/up_resp_img.png,"[0, 0.25]",down,stim/silver_coin.png,silver,,,,,training,,,silver,deval,,,,,0.0,0.0,0.0,0.0,0.0,0.0,0.0,0.0,,,,,,,,,training resp,,10.136437868008215,4.117265336630226,0.0,,down,0.0,5.0,40.0,1.0,5.0,30.0,15.0,5.0,15.0,30.0,30.0,60.0,RR,1.0,18.0,m,,right,2020_Feb_10_1715,habits_v_MRI,59.98773888812012,
1.0,0.0,resp1,stim/up_resp_img.png,"[0, 0.25]",down,stim/silver_coin.png,silver,,,,,training,,,silver,deval,,,,,0.0,0.0,0.0,0.0,0.0,0.0,0.0,0.0,,,,,,,,,training resp,,10.803242849815431,4.784089379536454,0.0,,down,0.0,5.0,40.0,1.0,5.0,30.0,15.0,5.0,15.0,30.0,30.0,60.0,RR,1.0,18.0,m,,right,2020_Feb_10_1715,habits_v_MRI,59.98773888812012,
1.0,0.0,resp1,stim/up_resp_img.png,"[0, 0.25]",down,stim/silver_coin.png,silver,,,,,training,,,silver,deval,,,,,0.0,0.0,0.0,0.0,0.0,0.0,0.0,0.0,,,,,,,,,training resp,,11.1868430336217,5.16767314147728,0.0,,down,0.0,5.0,40.0,1.0,5.0,30.0,15.0,5.0,15.0,30.0,30.0,60.0,RR,1.0,18.0,m,,right,2020_Feb_10_1715,habits_v_MRI,59.98773888812012,
1.0,0.0,resp1,stim/up_resp_img.png,"[0, 0.25]",down,stim/silver_coin.png,silver,,,,,training,,,silver,deval,,,,,0.0,0.0,0.0,0.0,0.0,0.0,0.0,0.0,,,,,,,,,training resp,,11.803609702627,5.78446649601392,0.0,,down,0.0,5.0,40.0,1.0,5.0,30.0,15.0,5.0,15.0,30.0,30.0,60.0,RR,1.0,18.0,m,,right,2020_Feb_10_1715,habits_v_MRI,59.98773888812012,
1.0,0.0,resp1,stim/up_resp_img.png,"[0, 0.25]",down,stim/silver_coin.png,silver,,,,,training,,,silver,deval,,,,,0.0,0.0,0.0,0.0,0.0,0.0,0.0,0.0,,,,,,,,,training resp,,12.503831427173282,6.484668866218271,0.0,,down,0.0,5.0,40.0,1.0,5.0,30.0,15.0,5.0,15.0,30.0,30.0,60.0,RR,1.0,18.0,m,,right,2020_Feb_10_1715,habits_v_MRI,59.98773888812012,
1.0,0.0,resp1,stim/up_resp_img.png,"[0, 0.25]",down,stim/silver_coin.png,silver,,,,,training,,,silver,deval,,,,,0.0,0.0,0.0,0.0,0.0,0.0,0.0,0.0,,,,,,,,,training resp,,15.68844871113106,9.668892611829506,0.0,,down,0.0,5.0,40.0,1.0,5.0,30.0,15.0,5.0,15.0,30.0,30.0,60.0,RR,1.0,18.0,m,,right,2020_Feb_10_1715,habits_v_MRI,59.98773888812012,
1.0,0.0,resp1,stim/up_resp_img.png,"[0, 0.25]",down,stim/silver_coin.png,silver,,,,,training,,,silver,deval,,,,,0.0,0.0,0.0,0.0,0.0,0.0,0.0,0.0,,,,,,,,,training resp,,17.338673470792855,11.31940240820768,0.0,,down,0.0,5.0,40.0,1.0,5.0,30.0,15.0,5.0,15.0,30.0,30.0,60.0,RR,1.0,18.0,m,,right,2020_Feb_10_1715,habits_v_MRI,59.98773888812012,
1.0,0.0,resp1,stim/up_resp_img.png,"[0, 0.25]",down,stim/silver_coin.png,silver,,,,,training,,,silver,deval,,,,,0.0,0.0,0.0,0.0,0.0,0.0,0.0,0.0,,,,,,,,,training resp,,18.438921939527063,12.41975673934212,0.0,,down,0.0,5.0,40.0,1.0,5.0,30.0,15.0,5.0,15.0,30.0,30.0,60.0,RR,1.0,18.0,m,,right,2020_Feb_10_1715,habits_v_MRI,59.98773888812012,
1.0,0.0,resp1,stim/up_resp_img.png,"[0, 0.25]",down,stim/silver_coin.png,silver,,,,,training,,,silver,deval,,,,,0.0,0.0,0.0,0.0,0.0,0.0,0.0,0.0,,,,,,,,,training resp,,22.407179934118176,16.387635857969144,0.0,,down,0.0,5.0,40.0,1.0,5.0,30.0,15.0,5.0,15.0,30.0,30.0,60.0,RR,1.0,18.0,m,,right,2020_Feb_10_1715,habits_v_MRI,59.98773888812012,
1.0,0.0,resp1,stim/up_resp_img.png,"[0, 0.25]",down,stim/silver_coin.png,silver,,,,,training,,,silver,deval,,,,,0.0,0.0,0.0,0.0,0.0,0.0,0.0,0.0,,,,,,,,,training resp,,26.79159094767965,20.772264168041147,0.0,,down,0.0,5.0,40.0,1.0,5.0,30.0,15.0,5.0,15.0,30.0,30.0,60.0,RR,1.0,18.0,m,,right,2020_Feb_10_1715,habits_v_MRI,59.98773888812012,
1.0,0.0,resp1,stim/up_resp_img.png,"[0, 0.25]",down,stim/silver_coin.png,silver,,,,,training,,,silver,deval,,,,,0.0,0.0,0.0,0.0,0.0,0.0,0.0,0.0,,,,,,,,,training resp,,31.326123351103888,25.3069443682798,0.0,14.0,down,1.0,5.0,40.0,1.0,5.0,30.0,15.0,5.0,15.0,30.0,30.0,60.0,RR,1.0,18.0,m,,right,2020_Feb_10_1715,habits_v_MRI,59.98773888812012,
1.0,0.0,resp1,stim/up_resp_img.png,"[0, 0.25]",down,stim/silver_coin.png,silver,,,,,training,,,silver,deval,,,,,0.0,0.0,0.0,0.0,0.0,0.0,0.0,0.0,,,,,,,,,training resp,,36.044612058285566,30.02531841562813,0.0,,down,0.0,5.0,40.0,1.0,5.0,30.0,15.0,5.0,15.0,30.0,30.0,60.0,RR,1.0,18.0,m,,right,2020_Feb_10_1715,habits_v_MRI,59.98773888812012,
1.0,0.0,resp1,stim/up_resp_img.png,"[0, 0.25]",down,stim/silver_coin.png,silver,,,,,training,,,silver,deval,,,,,0.0,0.0,0.0,0.0,0.0,0.0,0.0,0.0,,,,,,,,,training resp,,37.16145365206103,31.142281120686675,0.0,,down,0.0,5.0,40.0,1.0,5.0,30.0,15.0,5.0,15.0,30.0,30.0,60.0,RR,1.0,18.0,m,,right,2020_Feb_10_1715,habits_v_MRI,59.98773888812012,
1.0,0.0,resp1,stim/up_resp_img.png,"[0, 0.25]",down,stim/silver_coin.png,silver,,,,,training,,,silver,deval,,,,,0.0,0.0,0.0,0.0,0.0,0.0,0.0,0.0,,,,,,,,,training resp,,38.4618084523936,32.4426285898262,0.0,,down,0.0,5.0,40.0,1.0,5.0,30.0,15.0,5.0,15.0,30.0,30.0,60.0,RR,1.0,18.0,m,,right,2020_Feb_10_1715,habits_v_MRI,59.98773888812012,
1.0,0.0,resp1,stim/up_resp_img.png,"[0, 0.25]",down,stim/silver_coin.png,silver,,,,,training,,,silver,deval,,,,,0.0,0.0,0.0,0.0,0.0,0.0,0.0,0.0,,,,,,,,,training resp,,39.36212771110877,33.34298010578641,0.0,,down,0.0,5.0,40.0,1.0,5.0,30.0,15.0,5.0,15.0,30.0,30.0,60.0,RR,1.0,18.0,m,,right,2020_Feb_10_1715,habits_v_MRI,59.98773888812012,
1.0,0.0,resp1,stim/up_resp_img.png,"[0, 0.25]",down,stim/silver_coin.png,silver,,,,,training,,,silver,deval,,,,,0.0,0.0,0.0,0.0,0.0,0.0,0.0,0.0,,,,,,,,,training resp,,40.24571924411066,34.22654671273631,0.0,,down,0.0,5.0,40.0,1.0,5.0,30.0,15.0,5.0,15.0,30.0,30.0,60.0,RR,1.0,18.0,m,,right,2020_Feb_10_1715,habits_v_MRI,59.98773888812012,
1.0,0.0,resp1,stim/up_resp_img.png,"[0, 0.25]",down,stim/silver_coin.png,silver,,,,,training,,,silver,deval,,,,,0.0,0.0,0.0,0.0,0.0,0.0,0.0,0.0,,,,,,,,,training resp,,41.78011968609644,35.760659772022336,0.0,,down,0.0,5.0,40.0,1.0,5.0,30.0,15.0,5.0,15.0,30.0,30.0,60.0,RR,1.0,18.0,m,,right,2020_Feb_10_1715,habits_v_MRI,59.98773888812012,
1.0,0.0,resp1,stim/up_resp_img.png,"[0, 0.25]",down,stim/silver_coin.png,silver,,,,,training,,,silver,deval,,,,,0.0,0.0,0.0,0.0,0.0,0.0,0.0,0.0,,,,,,,,,training resp,,42.89621877682293,36.87704829818176,0.0,,down,0.0,5.0,40.0,1.0,5.0,30.0,15.0,5.0,15.0,30.0,30.0,60.0,RR,1.0,18.0,m,,right,2020_Feb_10_1715,habits_v_MRI,59.98773888812012,
1.0,0.0,resp1,stim/up_resp_img.png,"[0, 0.25]",down,stim/silver_coin.png,silver,,,,,training,,,silver,deval,,,,,0.0,0.0,0.0,0.0,0.0,0.0,0.0,0.0,,,,,,,,,training resp,,43.71414101751725,37.69487054142519,0.0,,down,0.0,5.0,40.0,1.0,5.0,30.0,15.0,5.0,15.0,30.0,30.0,60.0,RR,1.0,18.0,m,,right,2020_Feb_10_1715,habits_v_MRI,59.98773888812012,
1.0,0.0,resp1,stim/up_resp_img.png,"[0, 0.25]",down,stim/silver_coin.png,silver,,,,,training,,,silver,deval,,,,,0.0,0.0,0.0,0.0,0.0,0.0,0.0,0.0,,,,,,,,,training resp,,44.68074011015051,38.66127374462667,0.0,,down,0.0,5.0,40.0,1.0,5.0,30.0,15.0,5.0,15.0,30.0,30.0,60.0,RR,1.0,18.0,m,,right,2020_Feb_10_1715,habits_v_MRI,59.98773888812012,
1.0,0.0,resp1,stim/up_resp_img.png,"[0, 0.25]",down,stim/silver_coin.png,silver,,,,,training,,,silver,deval,,,,,0.0,0.0,0.0,0.0,0.0,0.0,0.0,0.0,,,,,,,,,training resp,,46.49804799701451,40.47868632090467,0.0,,down,0.0,5.0,40.0,1.0,5.0,30.0,15.0,5.0,15.0,30.0,30.0,60.0,RR,1.0,18.0,m,,right,2020_Feb_10_1715,habits_v_MRI,59.98773888812012,
1.0,0.0,resp1,stim/up_resp_img.png,"[0, 0.25]",down,stim/silver_coin.png,silver,,,,,training,,,silver,deval,,,,,0.0,0.0,0.0,0.0,0.0,0.0,0.0,0.0,,,,,,,,,training resp,,47.48100766930656,41.46181021188022,0.0,,down,0.0,5.0,40.0,1.0,5.0,30.0,15.0,5.0,15.0,30.0,30.0,60.0,RR,1.0,18.0,m,,right,2020_Feb_10_1715,habits_v_MRI,59.98773888812012,
1.0,0.0,resp1,stim/up_resp_img.png,"[0, 0.25]",down,stim/silver_coin.png,silver,,,,,training,,,silver,deval,,,,,0.0,0.0,0.0,0.0,0.0,0.0,0.0,0.0,,,,,,,,,training resp,,49.34872248127431,43.329357286191225,0.0,,down,0.0,5.0,40.0,1.0,5.0,30.0,15.0,5.0,15.0,30.0,30.0,60.0,RR,1.0,18.0,m,,right,2020_Feb_10_1715,habits_v_MRI,59.98773888812012,
1.0,0.0,resp1,stim/up_resp_img.png,"[0, 0.25]",down,stim/silver_coin.png,silver,,,,,training,,,silver,deval,,,,,0.0,0.0,0.0,0.0,0.0,0.0,0.0,0.0,,,,,,,,,training resp,,51.51558420650326,45.49638938830685,0.0,,down,0.0,5.0,40.0,1.0,5.0,30.0,15.0,5.0,15.0,30.0,30.0,60.0,RR,1.0,18.0,m,,right,2020_Feb_10_1715,habits_v_MRI,59.98773888812012,
1.0,0.0,resp1,stim/up_resp_img.png,"[0, 0.25]",down,stim/silver_coin.png,silver,,,,,training,,,silver,deval,,,,,0.0,0.0,0.0,0.0,0.0,0.0,0.0,0.0,,,,,,,,,training resp,,54.06705195497853,48.04764277274808,0.0,18.0,down,1.0,5.0,40.0,1.0,5.0,30.0,15.0,5.0,15.0,30.0,30.0,60.0,RR,1.0,18.0,m,,right,2020_Feb_10_1715,habits_v_MRI,59.98773888812012,
1.0,0.0,resp1,stim/up_resp_img.png,"[0, 0.25]",down,stim/silver_coin.png,silver,,,,,training,,,silver,deval,,,,,0.0,0.0,0.0,0.0,0.0,0.0,0.0,0.0,,,,,,,,,training resp,,55.850115260989696,49.83092542800296,0.0,,down,0.0,5.0,40.0,1.0,5.0,30.0,15.0,5.0,15.0,30.0,30.0,60.0,RR,1.0,18.0,m,,right,2020_Feb_10_1715,habits_v_MRI,59.98773888812012,
1.0,0.0,resp1,stim/up_resp_img.png,"[0, 0.25]",down,stim/silver_coin.png,silver,,,,,training,,,silver,deval,,,,,0.0,0.0,0.0,0.0,0.0,0.0,0.0,0.0,,,,,,,,,training resp,,57.8007358756513,51.781553373857605,0.0,,down,0.0,5.0,40.0,1.0,5.0,30.0,15.0,5.0,15.0,30.0,30.0,60.0,RR,1.0,18.0,m,,right,2020_Feb_10_1715,habits_v_MRI,59.98773888812012,
1.0,0.0,resp1,stim/up_resp_img.png,"[0, 0.25]",down,stim/silver_coin.png,silver,,,,,training,,,silver,deval,,,,,0.0,0.0,0.0,0.0,0.0,0.0,0.0,0.0,,,,,,,,,training resp,,58.80103674774364,52.78185776491955,0.0,,down,0.0,5.0,40.0,1.0,5.0,30.0,15.0,5.0,15.0,30.0,30.0,60.0,RR,1.0,18.0,m,,right,2020_Feb_10_1715,habits_v_MRI,59.98773888812012,
1.0,0.0,resp1,stim/up_resp_img.png,"[0, 0.25]",down,stim/silver_coin.png,silver,,,,,training,,,silver,deval,,,,,0.0,0.0,0.0,0.0,0.0,0.0,0.0,0.0,,,,,,,,,training resp,,59.76795137484805,53.74878030971013,0.0,,down,0.0,5.0,40.0,1.0,5.0,30.0,15.0,5.0,15.0,30.0,30.0,60.0,RR,1.0,18.0,m,,right,2020_Feb_10_1715,habits_v_MRI,59.98773888812012,
1.0,0.0,resp1,stim/up_resp_img.png,"[0, 0.25]",down,stim/silver_coin.png,silver,,,,,training,,,silver,deval,,,,,0.0,0.0,0.0,0.0,0.0,0.0,0.0,0.0,,,,,,,,,training resp,,60.768302685530216,54.749119890489965,0.0,,down,0.0,5.0,40.0,1.0,5.0,30.0,15.0,5.0,15.0,30.0,30.0,60.0,RR,1.0,18.0,m,,right,2020_Feb_10_1715,habits_v_MRI,59.98773888812012,
1.0,0.0,resp1,stim/up_resp_img.png,"[0, 0.25]",down,stim/silver_coin.png,silver,,,,,training,,,silver,deval,,,,,0.0,0.0,0.0,0.0,0.0,0.0,0.0,0.0,,,,,,,,,training resp,,62.485559166085295,56.46637050608842,0.0,,down,0.0,5.0,40.0,1.0,5.0,30.0,15.0,5.0,15.0,30.0,30.0,60.0,RR,1.0,18.0,m,,right,2020_Feb_10_1715,habits_v_MRI,59.98773888812012,
1.0,0.0,resp1,stim/up_resp_img.png,"[0, 0.25]",down,stim/silver_coin.png,silver,,,,,training,,,silver,deval,,,,,0.0,0.0,0.0,0.0,0.0,0.0,0.0,0.0,,,,,,,,,training resp,,63.35239100937906,57.333232260643854,0.0,,down,0.0,5.0,40.0,1.0,5.0,30.0,15.0,5.0,15.0,30.0,30.0,60.0,RR,1.0,18.0,m,,right,2020_Feb_10_1715,habits_v_MRI,59.98773888812012,
1.0,0.0,resp1,stim/up_resp_img.png,"[0, 0.25]",down,stim/silver_coin.png,silver,,,,,training,,,silver,deval,,,,,0.0,0.0,0.0,0.0,0.0,0.0,0.0,0.0,,,,,,,,,training resp,,64.3193821741188,58.30021785367717,0.0,,down,0.0,5.0,40.0,1.0,5.0,30.0,15.0,5.0,15.0,30.0,30.0,60.0,RR,1.0,18.0,m,,right,2020_Feb_10_1715,habits_v_MRI,59.98773888812012,
1.0,0.0,resp1,stim/up_resp_img.png,"[0, 0.25]",down,stim/silver_coin.png,silver,,,,,training,,,silver,deval,,,,,0.0,0.0,0.0,0.0,0.0,0.0,0.0,0.0,,,,,,,,,ITI start,25.0,65.70437000580932,59.68395322465221,,,,,5.0,40.0,1.0,5.0,30.0,15.0,5.0,15.0,30.0,30.0,60.0,RR,1.0,18.0,m,,right,2020_Feb_10_1715,habits_v_MRI,59.98773888812012,
1.0,1.0,resp2,stim/down_resp_img.png,"[0, -0.25]",up,stim/gold_coin.png,silver,,,,,training,,,gold,val,,,,,0.0,0.0,0.0,0.0,0.0,1.0,1.0,1.0,,,,,,,,,training period start,60.0,90.74793370374393,0.0,1.0,16.0,,,5.0,40.0,1.0,5.0,30.0,15.0,5.0,15.0,30.0,30.0,60.0,RR,1.0,18.0,m,,right,2020_Feb_10_1715,habits_v_MRI,59.98773888812012,
1.0,1.0,resp2,stim/down_resp_img.png,"[0, -0.25]",up,stim/gold_coin.png,silver,,,,,training,,,gold,val,,,,,0.0,0.0,0.0,0.0,0.0,1.0,1.0,1.0,,,,,,,,,training resp,,93.56114169521244,2.8319585394747264,1.0,,up,0.0,5.0,40.0,1.0,5.0,30.0,15.0,5.0,15.0,30.0,30.0,60.0,RR,1.0,18.0,m,,right,2020_Feb_10_1715,habits_v_MRI,59.98773888812012,
1.0,1.0,resp2,stim/down_resp_img.png,"[0, -0.25]",up,stim/gold_coin.png,silver,,,,,training,,,gold,val,,,,,0.0,0.0,0.0,0.0,0.0,1.0,1.0,1.0,,,,,,,,,training resp,,95.6458720847877,4.916308586849482,1.0,,up,0.0,5.0,40.0,1.0,5.0,30.0,15.0,5.0,15.0,30.0,30.0,60.0,RR,1.0,18.0,m,,right,2020_Feb_10_1715,habits_v_MRI,59.98773888812012,
1.0,1.0,resp2,stim/down_resp_img.png,"[0, -0.25]",up,stim/gold_coin.png,silver,,,,,training,,,gold,val,,,,,0.0,0.0,0.0,0.0,0.0,1.0,1.0,1.0,,,,,,,,,training resp,,97.76266939816924,7.033219387070858,1.0,,up,0.0,5.0,40.0,1.0,5.0,30.0,15.0,5.0,15.0,30.0,30.0,60.0,RR,1.0,18.0,m,,right,2020_Feb_10_1715,habits_v_MRI,59.98773888812012,
1.0,1.0,resp2,stim/down_resp_img.png,"[0, -0.25]",up,stim/gold_coin.png,silver,,,,,training,,,gold,val,,,,,0.0,0.0,0.0,0.0,0.0,1.0,1.0,1.0,,,,,,,,,training resp,,98.7629896246035,8.03355339614427,1.0,,up,0.0,5.0,40.0,1.0,5.0,30.0,15.0,5.0,15.0,30.0,30.0,60.0,RR,1.0,18.0,m,,right,2020_Feb_10_1715,habits_v_MRI,59.98773888812012,
1.0,1.0,resp2,stim/down_resp_img.png,"[0, -0.25]",up,stim/gold_coin.png,silver,,,,,training,,,gold,val,,,,,0.0,0.0,0.0,0.0,0.0,1.0,1.0,1.0,,,,,,,,,training resp,,99.68071606384184,8.950688061624533,1.0,,up,0.0,5.0,40.0,1.0,5.0,30.0,15.0,5.0,15.0,30.0,30.0,60.0,RR,1.0,18.0,m,,right,2020_Feb_10_1715,habits_v_MRI,59.98773888812012,
1.0,1.0,resp2,stim/down_resp_img.png,"[0, -0.25]",up,stim/gold_coin.png,silver,,,,,training,,,gold,val,,,,,0.0,0.0,0.0,0.0,0.0,1.0,1.0,1.0,,,,,,,,,training resp,,100.36404085878166,9.634461818717682,1.0,,up,0.0,5.0,40.0,1.0,5.0,30.0,15.0,5.0,15.0,30.0,30.0,60.0,RR,1.0,18.0,m,,right,2020_Feb_10_1715,habits_v_MRI,59.98773888812012,
1.0,1.0,resp2,stim/down_resp_img.png,"[0, -0.25]",up,stim/gold_coin.png,silver,,,,,training,,,gold,val,,,,,0.0,0.0,0.0,0.0,0.0,1.0,1.0,1.0,,,,,,,,,training resp,,101.29725722540024,10.567690208488784,1.0,,up,0.0,5.0,40.0,1.0,5.0,30.0,15.0,5.0,15.0,30.0,30.0,60.0,RR,1.0,18.0,m,,right,2020_Feb_10_1715,habits_v_MRI,59.98773888812012,
1.0,1.0,resp2,stim/down_resp_img.png,"[0, -0.25]",up,stim/gold_coin.png,silver,,,,,training,,,gold,val,,,,,0.0,0.0,0.0,0.0,0.0,1.0,1.0,1.0,,,,,,,,,training resp,,102.38071755940472,11.651289248631656,1.0,,up,0.0,5.0,40.0,1.0,5.0,30.0,15.0,5.0,15.0,30.0,30.0,60.0,RR,1.0,18.0,m,,right,2020_Feb_10_1715,habits_v_MRI,59.98773888812012,
1.0,1.0,resp2,stim/down_resp_img.png,"[0, -0.25]",up,stim/gold_coin.png,silver,,,,,training,,,gold,val,,,,,0.0,0.0,0.0,0.0,0.0,1.0,1.0,1.0,,,,,,,,,training resp,,102.99766868117877,12.268246235358674,1.0,,up,0.0,5.0,40.0,1.0,5.0,30.0,15.0,5.0,15.0,30.0,30.0,60.0,RR,1.0,18.0,m,,right,2020_Feb_10_1715,habits_v_MRI,59.98773888812012,
1.0,1.0,resp2,stim/down_resp_img.png,"[0, -0.25]",up,stim/gold_coin.png,silver,,,,,training,,,gold,val,,,,,0.0,0.0,0.0,0.0,0.0,1.0,1.0,1.0,,,,,,,,,training resp,,103.71505976240589,12.985466939699108,1.0,,up,0.0,5.0,40.0,1.0,5.0,30.0,15.0,5.0,15.0,30.0,30.0,60.0,RR,1.0,18.0,m,,right,2020_Feb_10_1715,habits_v_MRI,59.98773888812012,
1.0,1.0,resp2,stim/down_resp_img.png,"[0, -0.25]",up,stim/gold_coin.png,silver,,,,,training,,,gold,val,,,,,0.0,0.0,0.0,0.0,0.0,1.0,1.0,1.0,,,,,,,,,training resp,,104.69810095753928,13.96866824805329,1.0,,up,0.0,5.0,40.0,1.0,5.0,30.0,15.0,5.0,15.0,30.0,30.0,60.0,RR,1.0,18.0,m,,right,2020_Feb_10_1715,habits_v_MRI,59.98773888812012,
1.0,1.0,resp2,stim/down_resp_img.png,"[0, -0.25]",up,stim/gold_coin.png,silver,,,,,training,,,gold,val,,,,,0.0,0.0,0.0,0.0,0.0,1.0,1.0,1.0,,,,,,,,,training resp,,105.54841357419718,14.81897001454854,1.0,,up,0.0,5.0,40.0,1.0,5.0,30.0,15.0,5.0,15.0,30.0,30.0,60.0,RR,1.0,18.0,m,,right,2020_Feb_10_1715,habits_v_MRI,59.98773888812012,
1.0,1.0,resp2,stim/down_resp_img.png,"[0, -0.25]",up,stim/gold_coin.png,silver,,,,,training,,,gold,val,,,,,0.0,0.0,0.0,0.0,0.0,1.0,1.0,1.0,,,,,,,,,training resp,,106.2486001090292,15.519189979611838,1.0,,up,0.0,5.0,40.0,1.0,5.0,30.0,15.0,5.0,15.0,30.0,30.0,60.0,RR,1.0,18.0,m,,right,2020_Feb_10_1715,habits_v_MRI,59.98773888812012,
1.0,1.0,resp2,stim/down_resp_img.png,"[0, -0.25]",up,stim/gold_coin.png,silver,,,,,training,,,gold,val,,,,,0.0,0.0,0.0,0.0,0.0,1.0,1.0,1.0,,,,,,,,,training resp,,106.94880746444323,16.219380033413472,1.0,,up,0.0,5.0,40.0,1.0,5.0,30.0,15.0,5.0,15.0,30.0,30.0,60.0,RR,1.0,18.0,m,,right,2020_Feb_10_1715,habits_v_MRI,59.98773888812012,
1.0,1.0,resp2,stim/down_resp_img.png,"[0, -0.25]",up,stim/gold_coin.png,silver,,,,,training,,,gold,val,,,,,0.0,0.0,0.0,0.0,0.0,1.0,1.0,1.0,,,,,,,,,training resp,,107.94919924330316,17.219656565946934,1.0,,up,0.0,5.0,40.0,1.0,5.0,30.0,15.0,5.0,15.0,30.0,30.0,60.0,RR,1.0,18.0,m,,right,2020_Feb_10_1715,habits_v_MRI,59.98773888812012,
1.0,1.0,resp2,stim/down_resp_img.png,"[0, -0.25]",up,stim/gold_coin.png,silver,,,,,training,,,gold,val,,,,,0.0,0.0,0.0,0.0,0.0,1.0,1.0,1.0,,,,,,,,,training resp,,108.99944781467276,18.270012759203382,1.0,11.0,up,1.0,5.0,40.0,1.0,5.0,30.0,15.0,5.0,15.0,30.0,30.0,60.0,RR,1.0,18.0,m,,right,2020_Feb_10_1715,habits_v_MRI,59.98773888812012,
1.0,1.0,resp2,stim/down_resp_img.png,"[0, -0.25]",up,stim/gold_coin.png,silver,,,,,training,,,gold,val,,,,,0.0,0.0,0.0,0.0,0.0,1.0,1.0,1.0,,,,,,,,,training resp,,110.19977114953144,19.47033257509247,1.0,,up,0.0,5.0,40.0,1.0,5.0,30.0,15.0,5.0,15.0,30.0,30.0,60.0,RR,1.0,18.0,m,,right,2020_Feb_10_1715,habits_v_MRI,59.98773888812012,
1.0,1.0,resp2,stim/down_resp_img.png,"[0, -0.25]",up,stim/gold_coin.png,silver,,,,,training,,,gold,val,,,,,0.0,0.0,0.0,0.0,0.0,1.0,1.0,1.0,,,,,,,,,training resp,,111.31673414783654,20.58730642356022,1.0,,up,0.0,5.0,40.0,1.0,5.0,30.0,15.0,5.0,15.0,30.0,30.0,60.0,RR,1.0,18.0,m,,right,2020_Feb_10_1715,habits_v_MRI,59.98773888812012,
1.0,1.0,resp2,stim/down_resp_img.png,"[0, -0.25]",up,stim/gold_coin.png,silver,,,,,training,,,gold,val,,,,,0.0,0.0,0.0,0.0,0.0,1.0,1.0,1.0,,,,,,,,,training resp,,112.01703974121484,21.287607911468516,1.0,,up,0.0,5.0,40.0,1.0,5.0,30.0,15.0,5.0,15.0,30.0,30.0,60.0,RR,1.0,18.0,m,,right,2020_Feb_10_1715,habits_v_MRI,59.98773888812012,
1.0,1.0,resp2,stim/down_resp_img.png,"[0, -0.25]",up,stim/gold_coin.png,silver,,,,,training,,,gold,val,,,,,0.0,0.0,0.0,0.0,0.0,1.0,1.0,1.0,,,,,,,,,training resp,,112.81779174548863,22.088240857199708,1.0,,up,0.0,5.0,40.0,1.0,5.0,30.0,15.0,5.0,15.0,30.0,30.0,60.0,RR,1.0,18.0,m,,right,2020_Feb_10_1715,habits_v_MRI,59.98773888812012,
1.0,1.0,resp2,stim/down_resp_img.png,"[0, -0.25]",up,stim/gold_coin.png,silver,,,,,training,,,gold,val,,,,,0.0,0.0,0.0,0.0,0.0,1.0,1.0,1.0,,,,,,,,,training resp,,113.63475682584976,22.9052044713244,1.0,,up,0.0,5.0,40.0,1.0,5.0,30.0,15.0,5.0,15.0,30.0,30.0,60.0,RR,1.0,18.0,m,,right,2020_Feb_10_1715,habits_v_MRI,59.98773888812012,
1.0,1.0,resp2,stim/down_resp_img.png,"[0, -0.25]",up,stim/gold_coin.png,silver,,,,,training,,,gold,val,,,,,0.0,0.0,0.0,0.0,0.0,1.0,1.0,1.0,,,,,,,,,training resp,,114.53440513394526,23.80497301095238,1.0,,up,0.0,5.0,40.0,1.0,5.0,30.0,15.0,5.0,15.0,30.0,30.0,60.0,RR,1.0,18.0,m,,right,2020_Feb_10_1715,habits_v_MRI,59.98773888812012,
1.0,1.0,resp2,stim/down_resp_img.png,"[0, -0.25]",up,stim/gold_coin.png,silver,,,,,training,,,gold,val,,,,,0.0,0.0,0.0,0.0,0.0,1.0,1.0,1.0,,,,,,,,,training resp,,115.4013994364359,24.671936229191488,1.0,,up,0.0,5.0,40.0,1.0,5.0,30.0,15.0,5.0,15.0,30.0,30.0,60.0,RR,1.0,18.0,m,,right,2020_Feb_10_1715,habits_v_MRI,59.98773888812012,
1.0,1.0,resp2,stim/down_resp_img.png,"[0, -0.25]",up,stim/gold_coin.png,silver,,,,,training,,,gold,val,,,,,0.0,0.0,0.0,0.0,0.0,1.0,1.0,1.0,,,,,,,,,training resp,,116.33495039862464,25.60552414058475,1.0,,up,0.0,5.0,40.0,1.0,5.0,30.0,15.0,5.0,15.0,30.0,30.0,60.0,RR,1.0,18.0,m,,right,2020_Feb_10_1715,habits_v_MRI,59.98773888812012,
1.0,1.0,resp2,stim/down_resp_img.png,"[0, -0.25]",up,stim/gold_coin.png,silver,,,,,training,,,gold,val,,,,,0.0,0.0,0.0,0.0,0.0,1.0,1.0,1.0,,,,,,,,,training resp,,117.10186748901106,26.37242744833202,1.0,,up,0.0,5.0,40.0,1.0,5.0,30.0,15.0,5.0,15.0,30.0,30.0,60.0,RR,1.0,18.0,m,,right,2020_Feb_10_1715,habits_v_MRI,59.98773888812012,
1.0,1.0,resp2,stim/down_resp_img.png,"[0, -0.25]",up,stim/gold_coin.png,silver,,,,,training,,,gold,val,,,,,0.0,0.0,0.0,0.0,0.0,1.0,1.0,1.0,,,,,,,,,training resp,,117.81897206728172,27.089434668381728,1.0,,up,0.0,5.0,40.0,1.0,5.0,30.0,15.0,5.0,15.0,30.0,30.0,60.0,RR,1.0,18.0,m,,right,2020_Feb_10_1715,habits_v_MRI,59.98773888812012,
1.0,1.0,resp2,stim/down_resp_img.png,"[0, -0.25]",up,stim/gold_coin.png,silver,,,,,training,,,gold,val,,,,,0.0,0.0,0.0,0.0,0.0,1.0,1.0,1.0,,,,,,,,,training resp,,118.63600107563252,27.906456052292924,1.0,14.0,up,1.0,5.0,40.0,1.0,5.0,30.0,15.0,5.0,15.0,30.0,30.0,60.0,RR,1.0,18.0,m,,right,2020_Feb_10_1715,habits_v_MRI,59.98773888812012,
1.0,1.0,resp2,stim/down_resp_img.png,"[0, -0.25]",up,stim/gold_coin.png,silver,,,,,training,,,gold,val,,,,,0.0,0.0,0.0,0.0,0.0,1.0,1.0,1.0,,,,,,,,,training resp,,120.236152919264,29.50670847987203,1.0,,up,0.0,5.0,40.0,1.0,5.0,30.0,15.0,5.0,15.0,30.0,30.0,60.0,RR,1.0,18.0,m,,right,2020_Feb_10_1715,habits_v_MRI,59.98773888812012,
1.0,1.0,resp2,stim/down_resp_img.png,"[0, -0.25]",up,stim/gold_coin.png,silver,,,,,training,,,gold,val,,,,,0.0,0.0,0.0,0.0,0.0,1.0,1.0,1.0,,,,,,,,,training resp,,121.46977423156568,30.740329792173725,1.0,,up,0.0,5.0,40.0,1.0,5.0,30.0,15.0,5.0,15.0,30.0,30.0,60.0,RR,1.0,18.0,m,,right,2020_Feb_10_1715,habits_v_MRI,59.98773888812012,
1.0,1.0,resp2,stim/down_resp_img.png,"[0, -0.25]",up,stim/gold_coin.png,silver,,,,,training,,,gold,val,,,,,0.0,0.0,0.0,0.0,0.0,1.0,1.0,1.0,,,,,,,,,training resp,,122.30345032252808,31.574030222687725,1.0,,up,0.0,5.0,40.0,1.0,5.0,30.0,15.0,5.0,15.0,30.0,30.0,60.0,RR,1.0,18.0,m,,right,2020_Feb_10_1715,habits_v_MRI,59.98773888812012,
1.0,1.0,resp2,stim/down_resp_img.png,"[0, -0.25]",up,stim/gold_coin.png,silver,,,,,training,,,gold,val,,,,,0.0,0.0,0.0,0.0,0.0,1.0,1.0,1.0,,,,,,,,,training resp,,123.15368610830046,32.4242407891652,1.0,,up,0.0,5.0,40.0,1.0,5.0,30.0,15.0,5.0,15.0,30.0,30.0,60.0,RR,1.0,18.0,m,,right,2020_Feb_10_1715,habits_v_MRI,59.98773888812012,
1.0,1.0,resp2,stim/down_resp_img.png,"[0, -0.25]",up,stim/gold_coin.png,silver,,,,,training,,,gold,val,,,,,0.0,0.0,0.0,0.0,0.0,1.0,1.0,1.0,,,,,,,,,training resp,,124.07064453194108,33.34120507775879,1.0,,up,0.0,5.0,40.0,1.0,5.0,30.0,15.0,5.0,15.0,30.0,30.0,60.0,RR,1.0,18.0,m,,right,2020_Feb_10_1715,habits_v_MRI,59.98773888812012,
1.0,1.0,resp2,stim/down_resp_img.png,"[0, -0.25]",up,stim/gold_coin.png,silver,,,,,training,,,gold,val,,,,,0.0,0.0,0.0,0.0,0.0,1.0,1.0,1.0,,,,,,,,,training resp,,125.2878759398227,34.558312441880844,1.0,,up,0.0,5.0,40.0,1.0,5.0,30.0,15.0,5.0,15.0,30.0,30.0,60.0,RR,1.0,18.0,m,,right,2020_Feb_10_1715,habits_v_MRI,59.98773888812012,
1.0,1.0,resp2,stim/down_resp_img.png,"[0, -0.25]",up,stim/gold_coin.png,silver,,,,,training,,,gold,val,,,,,0.0,0.0,0.0,0.0,0.0,1.0,1.0,1.0,,,,,,,,,training resp,,126.08833792217048,35.35879407182438,1.0,,up,0.0,5.0,40.0,1.0,5.0,30.0,15.0,5.0,15.0,30.0,30.0,60.0,RR,1.0,18.0,m,,right,2020_Feb_10_1715,habits_v_MRI,59.98773888812012,
1.0,1.0,resp2,stim/down_resp_img.png,"[0, -0.25]",up,stim/gold_coin.png,silver,,,,,training,,,gold,val,,,,,0.0,0.0,0.0,0.0,0.0,1.0,1.0,1.0,,,,,,,,,training resp,,126.97189866416738,36.2423518813448,1.0,,up,0.0,5.0,40.0,1.0,5.0,30.0,15.0,5.0,15.0,30.0,30.0,60.0,RR,1.0,18.0,m,,right,2020_Feb_10_1715,habits_v_MRI,59.98773888812012,
1.0,1.0,resp2,stim/down_resp_img.png,"[0, -0.25]",up,stim/gold_coin.png,silver,,,,,training,,,gold,val,,,,,0.0,0.0,0.0,0.0,0.0,1.0,1.0,1.0,,,,,,,,,training resp,,127.8221001399652,37.0925278445975,1.0,,up,0.0,5.0,40.0,1.0,5.0,30.0,15.0,5.0,15.0,30.0,30.0,60.0,RR,1.0,18.0,m,,right,2020_Feb_10_1715,habits_v_MRI,59.98773888812012,
1.0,1.0,resp2,stim/down_resp_img.png,"[0, -0.25]",up,stim/gold_coin.png,silver,,,,,training,,,gold,val,,,,,0.0,0.0,0.0,0.0,0.0,1.0,1.0,1.0,,,,,,,,,training resp,,129.089468098613,38.35990049520842,1.0,,up,0.0,5.0,40.0,1.0,5.0,30.0,15.0,5.0,15.0,30.0,30.0,60.0,RR,1.0,18.0,m,,right,2020_Feb_10_1715,habits_v_MRI,59.98773888812012,
1.0,1.0,resp2,stim/down_resp_img.png,"[0, -0.25]",up,stim/gold_coin.png,silver,,,,,training,,,gold,val,,,,,0.0,0.0,0.0,0.0,0.0,1.0,1.0,1.0,,,,,,,,,training resp,,129.95595156369745,39.22651152301842,1.0,,up,0.0,5.0,40.0,1.0,5.0,30.0,15.0,5.0,15.0,30.0,30.0,60.0,RR,1.0,18.0,m,,right,2020_Feb_10_1715,habits_v_MRI,59.98773888812012,
1.0,1.0,resp2,stim/down_resp_img.png,"[0, -0.25]",up,stim/gold_coin.png,silver,,,,,training,,,gold,val,,,,,0.0,0.0,0.0,0.0,0.0,1.0,1.0,1.0,,,,,,,,,training resp,,130.92291486991235,40.19348714563603,1.0,,up,0.0,5.0,40.0,1.0,5.0,30.0,15.0,5.0,15.0,30.0,30.0,60.0,RR,1.0,18.0,m,,right,2020_Feb_10_1715,habits_v_MRI,59.98773888812012,
1.0,1.0,resp2,stim/down_resp_img.png,"[0, -0.25]",up,stim/gold_coin.png,silver,,,,,training,,,gold,val,,,,,0.0,0.0,0.0,0.0,0.0,1.0,1.0,1.0,,,,,,,,,training resp,,131.68992491980316,40.96048575886744,1.0,,up,0.0,5.0,40.0,1.0,5.0,30.0,15.0,5.0,15.0,30.0,30.0,60.0,RR,1.0,18.0,m,,right,2020_Feb_10_1715,habits_v_MRI,59.98773888812012,
1.0,1.0,resp2,stim/down_resp_img.png,"[0, -0.25]",up,stim/gold_coin.png,silver,,,,,training,,,gold,val,,,,,0.0,0.0,0.0,0.0,0.0,1.0,1.0,1.0,,,,,,,,,training resp,,133.04071626325094,42.31099353183527,1.0,19.0,up,1.0,5.0,40.0,1.0,5.0,30.0,15.0,5.0,15.0,30.0,30.0,60.0,RR,1.0,18.0,m,,right,2020_Feb_10_1715,habits_v_MRI,59.98773888812012,
1.0,1.0,resp2,stim/down_resp_img.png,"[0, -0.25]",up,stim/gold_coin.png,silver,,,,,training,,,gold,val,,,,,0.0,0.0,0.0,0.0,0.0,1.0,1.0,1.0,,,,,,,,,training resp,,133.97442147370384,43.24473158602632,1.0,,up,0.0,5.0,40.0,1.0,5.0,30.0,15.0,5.0,15.0,30.0,30.0,60.0,RR,1.0,18.0,m,,right,2020_Feb_10_1715,habits_v_MRI,59.98773888812012,
1.0,1.0,resp2,stim/down_resp_img.png,"[0, -0.25]",up,stim/gold_coin.png,silver,,,,,training,,,gold,val,,,,,0.0,0.0,0.0,0.0,0.0,1.0,1.0,1.0,,,,,,,,,training resp,,134.85839129617307,44.12846417114997,1.0,,up,0.0,5.0,40.0,1.0,5.0,30.0,15.0,5.0,15.0,30.0,30.0,60.0,RR,1.0,18.0,m,,right,2020_Feb_10_1715,habits_v_MRI,59.98773888812012,
1.0,1.0,resp2,stim/down_resp_img.png,"[0, -0.25]",up,stim/gold_coin.png,silver,,,,,training,,,gold,val,,,,,0.0,0.0,0.0,0.0,0.0,1.0,1.0,1.0,,,,,,,,,training resp,,135.5412290067652,44.81155319497702,1.0,,up,0.0,5.0,40.0,1.0,5.0,30.0,15.0,5.0,15.0,30.0,30.0,60.0,RR,1.0,18.0,m,,right,2020_Feb_10_1715,habits_v_MRI,59.98773888812012,
1.0,1.0,resp2,stim/down_resp_img.png,"[0, -0.25]",up,stim/gold_coin.png,silver,,,,,training,,,gold,val,,,,,0.0,0.0,0.0,0.0,0.0,1.0,1.0,1.0,,,,,,,,,training resp,,136.75812259335362,46.028534755856526,1.0,,up,0.0,5.0,40.0,1.0,5.0,30.0,15.0,5.0,15.0,30.0,30.0,60.0,RR,1.0,18.0,m,,right,2020_Feb_10_1715,habits_v_MRI,59.98773888812012,
1.0,1.0,resp2,stim/down_resp_img.png,"[0, -0.25]",up,stim/gold_coin.png,silver,,,,,training,,,gold,val,,,,,0.0,0.0,0.0,0.0,0.0,1.0,1.0,1.0,,,,,,,,,training resp,,137.64198538043274,46.91241982975771,1.0,,up,0.0,5.0,40.0,1.0,5.0,30.0,15.0,5.0,15.0,30.0,30.0,60.0,RR,1.0,18.0,m,,right,2020_Feb_10_1715,habits_v_MRI,59.98773888812012,
1.0,1.0,resp2,stim/down_resp_img.png,"[0, -0.25]",up,stim/gold_coin.png,silver,,,,,training,,,gold,val,,,,,0.0,0.0,0.0,0.0,0.0,1.0,1.0,1.0,,,,,,,,,training resp,,138.77572038484504,48.04609559814708,1.0,,up,0.0,5.0,40.0,1.0,5.0,30.0,15.0,5.0,15.0,30.0,30.0,60.0,RR,1.0,18.0,m,,right,2020_Feb_10_1715,habits_v_MRI,59.98773888812012,
1.0,1.0,resp2,stim/down_resp_img.png,"[0, -0.25]",up,stim/gold_coin.png,silver,,,,,training,,,gold,val,,,,,0.0,0.0,0.0,0.0,0.0,1.0,1.0,1.0,,,,,,,,,training resp,,139.6258330066048,48.89628211831587,1.0,,up,0.0,5.0,40.0,1.0,5.0,30.0,15.0,5.0,15.0,30.0,30.0,60.0,RR,1.0,18.0,m,,right,2020_Feb_10_1715,habits_v_MRI,59.98773888812012,
1.0,1.0,resp2,stim/down_resp_img.png,"[0, -0.25]",up,stim/gold_coin.png,silver,,,,,training,,,gold,val,,,,,0.0,0.0,0.0,0.0,0.0,1.0,1.0,1.0,,,,,,,,,training resp,,140.9096688735517,50.180109481076215,1.0,,up,0.0,5.0,40.0,1.0,5.0,30.0,15.0,5.0,15.0,30.0,30.0,60.0,RR,1.0,18.0,m,,right,2020_Feb_10_1715,habits_v_MRI,59.98773888812012,
1.0,1.0,resp2,stim/down_resp_img.png,"[0, -0.25]",up,stim/gold_coin.png,silver,,,,,training,,,gold,val,,,,,0.0,0.0,0.0,0.0,0.0,1.0,1.0,1.0,,,,,,,,,training resp,,141.92636962047982,51.19680758878167,1.0,,up,0.0,5.0,40.0,1.0,5.0,30.0,15.0,5.0,15.0,30.0,30.0,60.0,RR,1.0,18.0,m,,right,2020_Feb_10_1715,habits_v_MRI,59.98773888812012,
1.0,1.0,resp2,stim/down_resp_img.png,"[0, -0.25]",up,stim/gold_coin.png,silver,,,,,training,,,gold,val,,,,,0.0,0.0,0.0,0.0,0.0,1.0,1.0,1.0,,,,,,,,,training resp,,143.04369917834993,52.314073511908646,1.0,,up,0.0,5.0,40.0,1.0,5.0,30.0,15.0,5.0,15.0,30.0,30.0,60.0,RR,1.0,18.0,m,,right,2020_Feb_10_1715,habits_v_MRI,59.98773888812012,
1.0,1.0,resp2,stim/down_resp_img.png,"[0, -0.25]",up,stim/gold_coin.png,silver,,,,,training,,,gold,val,,,,,0.0,0.0,0.0,0.0,0.0,1.0,1.0,1.0,,,,,,,,,training resp,,144.26009189794786,53.53062223925736,1.0,,up,0.0,5.0,40.0,1.0,5.0,30.0,15.0,5.0,15.0,30.0,30.0,60.0,RR,1.0,18.0,m,,right,2020_Feb_10_1715,habits_v_MRI,59.98773888812012,
1.0,1.0,resp2,stim/down_resp_img.png,"[0, -0.25]",up,stim/gold_coin.png,silver,,,,,training,,,gold,val,,,,,0.0,0.0,0.0,0.0,0.0,1.0,1.0,1.0,,,,,,,,,training resp,,145.04402497648698,54.3144600123087,1.0,,up,0.0,5.0,40.0,1.0,5.0,30.0,15.0,5.0,15.0,30.0,30.0,60.0,RR,1.0,18.0,m,,right,2020_Feb_10_1715,habits_v_MRI,59.98773888812012,
1.0,1.0,resp2,stim/down_resp_img.png,"[0, -0.25]",up,stim/gold_coin.png,silver,,,,,training,,,gold,val,,,,,0.0,0.0,0.0,0.0,0.0,1.0,1.0,1.0,,,,,,,,,training resp,,145.91056415862477,55.18111062855678,1.0,,up,0.0,5.0,40.0,1.0,5.0,30.0,15.0,5.0,15.0,30.0,30.0,60.0,RR,1.0,18.0,m,,right,2020_Feb_10_1715,habits_v_MRI,59.98773888812012,
1.0,1.0,resp2,stim/down_resp_img.png,"[0, -0.25]",up,stim/gold_coin.png,silver,,,,,training,,,gold,val,,,,,0.0,0.0,0.0,0.0,0.0,1.0,1.0,1.0,,,,,,,,,training resp,,147.07759127553072,56.34814742263188,1.0,,up,0.0,5.0,40.0,1.0,5.0,30.0,15.0,5.0,15.0,30.0,30.0,60.0,RR,1.0,18.0,m,,right,2020_Feb_10_1715,habits_v_MRI,59.98773888812012,
1.0,1.0,resp2,stim/down_resp_img.png,"[0, -0.25]",up,stim/gold_coin.png,silver,,,,,training,,,gold,val,,,,,0.0,0.0,0.0,0.0,0.0,1.0,1.0,1.0,,,,,,,,,training resp,,147.94446974519815,57.21502765178593,1.0,,up,0.0,5.0,40.0,1.0,5.0,30.0,15.0,5.0,15.0,30.0,30.0,60.0,RR,1.0,18.0,m,,right,2020_Feb_10_1715,habits_v_MRI,59.98773888812012,
1.0,1.0,resp2,stim/down_resp_img.png,"[0, -0.25]",up,stim/gold_coin.png,silver,,,,,training,,,gold,val,,,,,0.0,0.0,0.0,0.0,0.0,1.0,1.0,1.0,,,,,,,,,training resp,,148.71140970889974,57.98196497626122,1.0,,up,0.0,5.0,40.0,1.0,5.0,30.0,15.0,5.0,15.0,30.0,30.0,60.0,RR,1.0,18.0,m,,right,2020_Feb_10_1715,habits_v_MRI,59.98773888812012,
1.0,1.0,resp2,stim/down_resp_img.png,"[0, -0.25]",up,stim/gold_coin.png,silver,,,,,training,,,gold,val,,,,,0.0,0.0,0.0,0.0,0.0,1.0,1.0,1.0,,,,,,,,,training resp,,149.47832386680966,58.748884705873934,1.0,,up,0.0,5.0,40.0,1.0,5.0,30.0,15.0,5.0,15.0,30.0,30.0,60.0,RR,1.0,18.0,m,,right,2020_Feb_10_1715,habits_v_MRI,59.98773888812012,
1.0,1.0,resp2,stim/down_resp_img.png,"[0, -0.25]",up,stim/gold_coin.png,silver,,,,,training,,,gold,val,,,,,0.0,0.0,0.0,0.0,0.0,1.0,1.0,1.0,,,,,,,,,ITI start,28.333333333333336,150.413439598462,59.682555313105695,,,,,5.0,40.0,1.0,5.0,30.0,15.0,5.0,15.0,30.0,30.0,60.0,RR,1.0,18.0,m,,right,2020_Feb_10_1715,habits_v_MRI,59.98773888812012,
1.0,0.0,resp1,stim/up_resp_img.png,"[0, 0.25]",down,stim/silver_coin.png,silver,,,,,training,,,silver,deval,,,,,0.0,0.0,0.0,0.0,1.0,0.0,2.0,0.0,,,,,,,,,training period start,37.5,178.7741128012276,0.0,2.0,19.0,,,5.0,40.0,1.0,5.0,30.0,15.0,5.0,15.0,30.0,30.0,60.0,RR,1.0,18.0,m,,right,2020_Feb_10_1715,habits_v_MRI,59.98773888812012,
1.0,0.0,resp1,stim/up_resp_img.png,"[0, 0.25]",down,stim/silver_coin.png,silver,,,,,training,,,silver,deval,,,,,0.0,0.0,0.0,0.0,1.0,0.0,2.0,0.0,,,,,,,,,training resp,,181.45487989015965,2.6990774722180504,2.0,,down,0.0,5.0,40.0,1.0,5.0,30.0,15.0,5.0,15.0,30.0,30.0,60.0,RR,1.0,18.0,m,,right,2020_Feb_10_1715,habits_v_MRI,59.98773888812012,
1.0,0.0,resp1,stim/up_resp_img.png,"[0, 0.25]",down,stim/silver_coin.png,silver,,,,,training,,,silver,deval,,,,,0.0,0.0,0.0,0.0,1.0,0.0,2.0,0.0,,,,,,,,,training resp,,182.40524743210332,3.649473165936797,2.0,,down,0.0,5.0,40.0,1.0,5.0,30.0,15.0,5.0,15.0,30.0,30.0,60.0,RR,1.0,18.0,m,,right,2020_Feb_10_1715,habits_v_MRI,59.98773888812012,
1.0,0.0,resp1,stim/up_resp_img.png,"[0, 0.25]",down,stim/silver_coin.png,silver,,,,,training,,,silver,deval,,,,,0.0,0.0,0.0,0.0,1.0,0.0,2.0,0.0,,,,,,,,,training resp,,184.0894692716029,5.333564510234282,2.0,,down,0.0,5.0,40.0,1.0,5.0,30.0,15.0,5.0,15.0,30.0,30.0,60.0,RR,1.0,18.0,m,,right,2020_Feb_10_1715,habits_v_MRI,59.98773888812012,
1.0,0.0,resp1,stim/up_resp_img.png,"[0, 0.25]",down,stim/silver_coin.png,silver,,,,,training,,,silver,deval,,,,,0.0,0.0,0.0,0.0,1.0,0.0,2.0,0.0,,,,,,,,,training resp,,185.32242520498767,6.566633343962167,2.0,,down,0.0,5.0,40.0,1.0,5.0,30.0,15.0,5.0,15.0,30.0,30.0,60.0,RR,1.0,18.0,m,,right,2020_Feb_10_1715,habits_v_MRI,59.98773888812012,
1.0,0.0,resp1,stim/up_resp_img.png,"[0, 0.25]",down,stim/silver_coin.png,silver,,,,,training,,,silver,deval,,,,,0.0,0.0,0.0,0.0,1.0,0.0,2.0,0.0,,,,,,,,,training resp,,186.389460151604,7.633650109222799,2.0,,down,0.0,5.0,40.0,1.0,5.0,30.0,15.0,5.0,15.0,30.0,30.0,60.0,RR,1.0,18.0,m,,right,2020_Feb_10_1715,habits_v_MRI,59.98773888812012,
1.0,0.0,resp1,stim/up_resp_img.png,"[0, 0.25]",down,stim/silver_coin.png,silver,,,,,training,,,silver,deval,,,,,0.0,0.0,0.0,0.0,1.0,0.0,2.0,0.0,,,,,,,,,training resp,,187.02298885629352,8.267222801063326,2.0,,down,0.0,5.0,40.0,1.0,5.0,30.0,15.0,5.0,15.0,30.0,30.0,60.0,RR,1.0,18.0,m,,right,2020_Feb_10_1715,habits_v_MRI,59.98773888812012,
1.0,0.0,resp1,stim/up_resp_img.png,"[0, 0.25]",down,stim/silver_coin.png,silver,,,,,training,,,silver,deval,,,,,0.0,0.0,0.0,0.0,1.0,0.0,2.0,0.0,,,,,,,,,training resp,,188.14004217487675,9.384123044368607,2.0,,down,0.0,5.0,40.0,1.0,5.0,30.0,15.0,5.0,15.0,30.0,30.0,60.0,RR,1.0,18.0,m,,right,2020_Feb_10_1715,habits_v_MRI,59.98773888812012,
1.0,0.0,resp1,stim/up_resp_img.png,"[0, 0.25]",down,stim/silver_coin.png,silver,,,,,training,,,silver,deval,,,,,0.0,0.0,0.0,0.0,1.0,0.0,2.0,0.0,,,,,,,,,training resp,,189.1407060875572,10.384820094033785,2.0,,down,0.0,5.0,40.0,1.0,5.0,30.0,15.0,5.0,15.0,30.0,30.0,60.0,RR,1.0,18.0,m,,right,2020_Feb_10_1715,habits_v_MRI,59.98773888812012,
1.0,0.0,resp1,stim/up_resp_img.png,"[0, 0.25]",down,stim/silver_coin.png,silver,,,,,training,,,silver,deval,,,,,0.0,0.0,0.0,0.0,1.0,0.0,2.0,0.0,,,,,,,,,training resp,,190.2411920868872,11.485228382738567,2.0,,down,0.0,5.0,40.0,1.0,5.0,30.0,15.0,5.0,15.0,30.0,30.0,60.0,RR,1.0,18.0,m,,right,2020_Feb_10_1715,habits_v_MRI,59.98773888812012,
1.0,0.0,resp1,stim/up_resp_img.png,"[0, 0.25]",down,stim/silver_coin.png,silver,,,,,training,,,silver,deval,,,,,0.0,0.0,0.0,0.0,1.0,0.0,2.0,0.0,,,,,,,,,training resp,,191.54118707235105,12.785271460816148,2.0,,down,0.0,5.0,40.0,1.0,5.0,30.0,15.0,5.0,15.0,30.0,30.0,60.0,RR,1.0,18.0,m,,right,2020_Feb_10_1715,habits_v_MRI,59.98773888812012,
1.0,0.0,resp1,stim/up_resp_img.png,"[0, 0.25]",down,stim/silver_coin.png,silver,,,,,training,,,silver,deval,,,,,0.0,0.0,0.0,0.0,1.0,0.0,2.0,0.0,,,,,,,,,training resp,,192.5245995190162,13.76881704191328,2.0,,down,0.0,5.0,40.0,1.0,5.0,30.0,15.0,5.0,15.0,30.0,30.0,60.0,RR,1.0,18.0,m,,right,2020_Feb_10_1715,habits_v_MRI,59.98773888812012,
1.0,0.0,resp1,stim/up_resp_img.png,"[0, 0.25]",down,stim/silver_coin.png,silver,,,,,training,,,silver,deval,,,,,0.0,0.0,0.0,0.0,1.0,0.0,2.0,0.0,,,,,,,,,training resp,,194.0417546531789,15.28596719086636,2.0,,down,0.0,5.0,40.0,1.0,5.0,30.0,15.0,5.0,15.0,30.0,30.0,60.0,RR,1.0,18.0,m,,right,2020_Feb_10_1715,habits_v_MRI,59.98773888812012,
1.0,0.0,resp1,stim/up_resp_img.png,"[0, 0.25]",down,stim/silver_coin.png,silver,,,,,training,,,silver,deval,,,,,0.0,0.0,0.0,0.0,1.0,0.0,2.0,0.0,,,,,,,,,training resp,,195.1754949360511,16.419704248015478,2.0,,down,0.0,5.0,40.0,1.0,5.0,30.0,15.0,5.0,15.0,30.0,30.0,60.0,RR,1.0,18.0,m,,right,2020_Feb_10_1715,habits_v_MRI,59.98773888812012,
1.0,0.0,resp1,stim/up_resp_img.png,"[0, 0.25]",down,stim/silver_coin.png,silver,,,,,training,,,silver,deval,,,,,0.0,0.0,0.0,0.0,1.0,0.0,2.0,0.0,,,,,,,,,training resp,,196.39308762503788,17.636927444960747,2.0,,down,0.0,5.0,40.0,1.0,5.0,30.0,15.0,5.0,15.0,30.0,30.0,60.0,RR,1.0,18.0,m,,right,2020_Feb_10_1715,habits_v_MRI,59.98773888812012,
1.0,0.0,resp1,stim/up_resp_img.png,"[0, 0.25]",down,stim/silver_coin.png,silver,,,,,training,,,silver,deval,,,,,0.0,0.0,0.0,0.0,1.0,0.0,2.0,0.0,,,,,,,,,training resp,,197.526129685255,18.7703442756756,2.0,,down,0.0,5.0,40.0,1.0,5.0,30.0,15.0,5.0,15.0,30.0,30.0,60.0,RR,1.0,18.0,m,,right,2020_Feb_10_1715,habits_v_MRI,59.98773888812012,
1.0,0.0,resp1,stim/up_resp_img.png,"[0, 0.25]",down,stim/silver_coin.png,silver,,,,,training,,,silver,deval,,,,,0.0,0.0,0.0,0.0,1.0,0.0,2.0,0.0,,,,,,,,,training resp,,199.00991968826563,20.254127827240158,2.0,,down,0.0,5.0,40.0,1.0,5.0,30.0,15.0,5.0,15.0,30.0,30.0,60.0,RR,1.0,18.0,m,,right,2020_Feb_10_1715,habits_v_MRI,59.98773888812012,
1.0,0.0,resp1,stim/up_resp_img.png,"[0, 0.25]",down,stim/silver_coin.png,silver,,,,,training,,,silver,deval,,,,,0.0,0.0,0.0,0.0,1.0,0.0,2.0,0.0,,,,,,,,,training resp,,200.22696781636117,21.47116862414623,2.0,,down,0.0,5.0,40.0,1.0,5.0,30.0,15.0,5.0,15.0,30.0,30.0,60.0,RR,1.0,18.0,m,,right,2020_Feb_10_1715,habits_v_MRI,59.98773888812012,
1.0,0.0,resp1,stim/up_resp_img.png,"[0, 0.25]",down,stim/silver_coin.png,silver,,,,,training,,,silver,deval,,,,,0.0,0.0,0.0,0.0,1.0,0.0,2.0,0.0,,,,,,,,,training resp,,201.91085506029407,23.15504560440968,2.0,,down,0.0,5.0,40.0,1.0,5.0,30.0,15.0,5.0,15.0,30.0,30.0,60.0,RR,1.0,18.0,m,,right,2020_Feb_10_1715,habits_v_MRI,59.98773888812012,
1.0,0.0,resp1,stim/up_resp_img.png,"[0, 0.25]",down,stim/silver_coin.png,silver,,,,,training,,,silver,deval,,,,,0.0,0.0,0.0,0.0,1.0,0.0,2.0,0.0,,,,,,,,,training resp,,202.99449456861475,24.23870124134919,2.0,8.0,down,1.0,5.0,40.0,1.0,5.0,30.0,15.0,5.0,15.0,30.0,30.0,60.0,RR,1.0,18.0,m,,right,2020_Feb_10_1715,habits_v_MRI,59.98773888812012,
1.0,0.0,resp1,stim/up_resp_img.png,"[0, 0.25]",down,stim/silver_coin.png,silver,,,,,training,,,silver,deval,,,,,0.0,0.0,0.0,0.0,1.0,0.0,2.0,0.0,,,,,,,,,training resp,,204.74508685555335,25.989278572658804,2.0,,down,0.0,5.0,40.0,1.0,5.0,30.0,15.0,5.0,15.0,30.0,30.0,60.0,RR,1.0,18.0,m,,right,2020_Feb_10_1715,habits_v_MRI,59.98773888812012,
1.0,0.0,resp1,stim/up_resp_img.png,"[0, 0.25]",down,stim/silver_coin.png,silver,,,,,training,,,silver,deval,,,,,0.0,0.0,0.0,0.0,1.0,0.0,2.0,0.0,,,,,,,,,training resp,,205.87938548195237,27.12342089806043,2.0,,down,0.0,5.0,40.0,1.0,5.0,30.0,15.0,5.0,15.0,30.0,30.0,60.0,RR,1.0,18.0,m,,right,2020_Feb_10_1715,habits_v_MRI,59.98773888812012,
1.0,0.0,resp1,stim/up_resp_img.png,"[0, 0.25]",down,stim/silver_coin.png,silver,,,,,training,,,silver,deval,,,,,0.0,0.0,0.0,0.0,1.0,0.0,2.0,0.0,,,,,,,,,training resp,,207.29641032618747,28.540510843275115,2.0,,down,0.0,5.0,40.0,1.0,5.0,30.0,15.0,5.0,15.0,30.0,30.0,60.0,RR,1.0,18.0,m,,right,2020_Feb_10_1715,habits_v_MRI,59.98773888812012,
1.0,0.0,resp1,stim/up_resp_img.png,"[0, 0.25]",down,stim/silver_coin.png,silver,,,,,training,,,silver,deval,,,,,0.0,0.0,0.0,0.0,1.0,0.0,2.0,0.0,,,,,,,,,training resp,,209.21355554858383,30.45759067144172,2.0,,down,0.0,5.0,40.0,1.0,5.0,30.0,15.0,5.0,15.0,30.0,30.0,60.0,RR,1.0,18.0,m,,right,2020_Feb_10_1715,habits_v_MRI,59.98773888812012,
1.0,0.0,resp1,stim/up_resp_img.png,"[0, 0.25]",down,stim/silver_coin.png,silver,,,,,training,,,silver,deval,,,,,0.0,0.0,0.0,0.0,1.0,0.0,2.0,0.0,,,,,,,,,training resp,,211.01356886202484,32.25777377527629,2.0,,down,0.0,5.0,40.0,1.0,5.0,30.0,15.0,5.0,15.0,30.0,30.0,60.0,RR,1.0,18.0,m,,right,2020_Feb_10_1715,habits_v_MRI,59.98773888812012,
1.0,0.0,resp1,stim/up_resp_img.png,"[0, 0.25]",down,stim/silver_coin.png,silver,,,,,training,,,silver,deval,,,,,0.0,0.0,0.0,0.0,1.0,0.0,2.0,0.0,,,,,,,,,training resp,,211.5303674070492,32.77458463669973,2.0,,down,0.0,5.0,40.0,1.0,5.0,30.0,15.0,5.0,15.0,30.0,30.0,60.0,RR,1.0,18.0,m,,right,2020_Feb_10_1715,habits_v_MRI,59.98773888812012,
1.0,0.0,resp1,stim/up_resp_img.png,"[0, 0.25]",down,stim/silver_coin.png,silver,,,,,training,,,silver,deval,,,,,0.0,0.0,0.0,0.0,1.0,0.0,2.0,0.0,,,,,,,,,training resp,,212.0475468807672,33.29171543130724,2.0,,down,0.0,5.0,40.0,1.0,5.0,30.0,15.0,5.0,15.0,30.0,30.0,60.0,RR,1.0,18.0,m,,right,2020_Feb_10_1715,habits_v_MRI,59.98773888812012,
1.0,0.0,resp1,stim/up_resp_img.png,"[0, 0.25]",down,stim/silver_coin.png,silver,,,,,training,,,silver,deval,,,,,0.0,0.0,0.0,0.0,1.0,0.0,2.0,0.0,,,,,,,,,training resp,,212.61441834181824,33.85857956116888,2.0,13.0,down,1.0,5.0,40.0,1.0,5.0,30.0,15.0,5.0,15.0,30.0,30.0,60.0,RR,1.0,18.0,m,,right,2020_Feb_10_1715,habits_v_MRI,59.98773888812012,
1.0,0.0,resp1,stim/up_resp_img.png,"[0, 0.25]",down,stim/silver_coin.png,silver,,,,,training,,,silver,deval,,,,,0.0,0.0,0.0,0.0,1.0,0.0,2.0,0.0,,,,,,,,,training resp,,213.5313585841068,34.77551452499756,2.0,,down,0.0,5.0,40.0,1.0,5.0,30.0,15.0,5.0,15.0,30.0,30.0,60.0,RR,1.0,18.0,m,,right,2020_Feb_10_1715,habits_v_MRI,59.98773888812012,
1.0,0.0,resp1,stim/up_resp_img.png,"[0, 0.25]",down,stim/silver_coin.png,silver,,,,,training,,,silver,deval,,,,,0.0,0.0,0.0,0.0,1.0,0.0,2.0,0.0,,,,,,,,,training resp,,214.13156849077492,35.37570830304685,2.0,,down,0.0,5.0,40.0,1.0,5.0,30.0,15.0,5.0,15.0,30.0,30.0,60.0,RR,1.0,18.0,m,,right,2020_Feb_10_1715,habits_v_MRI,59.98773888812012,
1.0,0.0,resp1,stim/up_resp_img.png,"[0, 0.25]",down,stim/silver_coin.png,silver,,,,,training,,,silver,deval,,,,,0.0,0.0,0.0,0.0,1.0,0.0,2.0,0.0,,,,,,,,,training resp,,214.7479081911988,35.99218055140591,2.0,,down,0.0,5.0,40.0,1.0,5.0,30.0,15.0,5.0,15.0,30.0,30.0,60.0,RR,1.0,18.0,m,,right,2020_Feb_10_1715,habits_v_MRI,59.98773888812012,
1.0,0.0,resp1,stim/up_resp_img.png,"[0, 0.25]",down,stim/silver_coin.png,silver,,,,,training,,,silver,deval,,,,,0.0,0.0,0.0,0.0,1.0,0.0,2.0,0.0,,,,,,,,,training resp,,215.2480713835139,36.49233993150483,2.0,,down,0.0,5.0,40.0,1.0,5.0,30.0,15.0,5.0,15.0,30.0,30.0,60.0,RR,1.0,18.0,m,,right,2020_Feb_10_1715,habits_v_MRI,59.98773888812012,
1.0,0.0,resp1,stim/up_resp_img.png,"[0, 0.25]",down,stim/silver_coin.png,silver,,,,,training,,,silver,deval,,,,,0.0,0.0,0.0,0.0,1.0,0.0,2.0,0.0,,,,,,,,,training resp,,215.8821179635597,37.12620088578478,2.0,,down,0.0,5.0,40.0,1.0,5.0,30.0,15.0,5.0,15.0,30.0,30.0,60.0,RR,1.0,18.0,m,,right,2020_Feb_10_1715,habits_v_MRI,59.98773888812012,
1.0,0.0,resp1,stim/up_resp_img.png,"[0, 0.25]",down,stim/silver_coin.png,silver,,,,,training,,,silver,deval,,,,,0.0,0.0,0.0,0.0,1.0,0.0,2.0,0.0,,,,,,,,,ITI start,21.666666666666668,215.98314940352063,37.22613645927777,,,,,5.0,40.0,1.0,5.0,30.0,15.0,5.0,15.0,30.0,30.0,60.0,RR,1.0,18.0,m,,right,2020_Feb_10_1715,habits_v_MRI,59.98773888812012,
1.0,1.0,resp2,stim/down_resp_img.png,"[0, -0.25]",up,stim/gold_coin.png,silver,,,,,training,,,gold,val,,,,,0.0,0.0,0.0,0.0,1.0,1.0,3.0,1.0,,,,,,,,,training period start,37.5,237.6920119633287,0.0,3.0,16.0,,,5.0,40.0,1.0,5.0,30.0,15.0,5.0,15.0,30.0,30.0,60.0,RR,1.0,18.0,m,,right,2020_Feb_10_1715,habits_v_MRI,59.98773888812012,
1.0,1.0,resp2,stim/down_resp_img.png,"[0, -0.25]",up,stim/gold_coin.png,silver,,,,,training,,,gold,val,,,,,0.0,0.0,0.0,0.0,1.0,1.0,3.0,1.0,,,,,,,,,training resp,,239.10538264859497,1.4320596512625343,3.0,,up,0.0,5.0,40.0,1.0,5.0,30.0,15.0,5.0,15.0,30.0,30.0,60.0,RR,1.0,18.0,m,,right,2020_Feb_10_1715,habits_v_MRI,59.98773888812012,
1.0,1.0,resp2,stim/down_resp_img.png,"[0, -0.25]",up,stim/gold_coin.png,silver,,,,,training,,,gold,val,,,,,0.0,0.0,0.0,0.0,1.0,1.0,3.0,1.0,,,,,,,,,training resp,,239.78943117873496,2.1160058379755355,3.0,,up,0.0,5.0,40.0,1.0,5.0,30.0,15.0,5.0,15.0,30.0,30.0,60.0,RR,1.0,18.0,m,,right,2020_Feb_10_1715,habits_v_MRI,59.98773888812012,
1.0,1.0,resp2,stim/down_resp_img.png,"[0, -0.25]",up,stim/gold_coin.png,silver,,,,,training,,,gold,val,,,,,0.0,0.0,0.0,0.0,1.0,1.0,3.0,1.0,,,,,,,,,training resp,,240.4890895745484,2.815790330274467,3.0,,up,0.0,5.0,40.0,1.0,5.0,30.0,15.0,5.0,15.0,30.0,30.0,60.0,RR,1.0,18.0,m,,right,2020_Feb_10_1715,habits_v_MRI,59.98773888812012,
1.0,1.0,resp2,stim/down_resp_img.png,"[0, -0.25]",up,stim/gold_coin.png,silver,,,,,training,,,gold,val,,,,,0.0,0.0,0.0,0.0,1.0,1.0,3.0,1.0,,,,,,,,,training resp,,241.15601009592865,3.4827155436214525,3.0,,up,0.0,5.0,40.0,1.0,5.0,30.0,15.0,5.0,15.0,30.0,30.0,60.0,RR,1.0,18.0,m,,right,2020_Feb_10_1715,habits_v_MRI,59.98773888812012,
1.0,1.0,resp2,stim/down_resp_img.png,"[0, -0.25]",up,stim/gold_coin.png,silver,,,,,training,,,gold,val,,,,,0.0,0.0,0.0,0.0,1.0,1.0,3.0,1.0,,,,,,,,,training resp,,241.89004239481076,4.216575706133881,3.0,,up,0.0,5.0,40.0,1.0,5.0,30.0,15.0,5.0,15.0,30.0,30.0,60.0,RR,1.0,18.0,m,,right,2020_Feb_10_1715,habits_v_MRI,59.98773888812012,
1.0,1.0,resp2,stim/down_resp_img.png,"[0, -0.25]",up,stim/gold_coin.png,silver,,,,,training,,,gold,val,,,,,0.0,0.0,0.0,0.0,1.0,1.0,3.0,1.0,,,,,,,,,training resp,,242.6238969856204,4.9502024435169005,3.0,,up,0.0,5.0,40.0,1.0,5.0,30.0,15.0,5.0,15.0,30.0,30.0,60.0,RR,1.0,18.0,m,,right,2020_Feb_10_1715,habits_v_MRI,59.98773888812012,
1.0,1.0,resp2,stim/down_resp_img.png,"[0, -0.25]",up,stim/gold_coin.png,silver,,,,,training,,,gold,val,,,,,0.0,0.0,0.0,0.0,1.0,1.0,3.0,1.0,,,,,,,,,training resp,,243.3400051083736,5.66671172905626,3.0,,up,0.0,5.0,40.0,1.0,5.0,30.0,15.0,5.0,15.0,30.0,30.0,60.0,RR,1.0,18.0,m,,right,2020_Feb_10_1715,habits_v_MRI,59.98773888812012,
1.0,1.0,resp2,stim/down_resp_img.png,"[0, -0.25]",up,stim/gold_coin.png,silver,,,,,training,,,gold,val,,,,,0.0,0.0,0.0,0.0,1.0,1.0,3.0,1.0,,,,,,,,,training resp,,244.09027570264152,6.41697440563803,3.0,,up,0.0,5.0,40.0,1.0,5.0,30.0,15.0,5.0,15.0,30.0,30.0,60.0,RR,1.0,18.0,m,,right,2020_Feb_10_1715,habits_v_MRI,59.98773888812012,
1.0,1.0,resp2,stim/down_resp_img.png,"[0, -0.25]",up,stim/gold_coin.png,silver,,,,,training,,,gold,val,,,,,0.0,0.0,0.0,0.0,1.0,1.0,3.0,1.0,,,,,,,,,training resp,,244.97390594433452,7.300596436394699,3.0,,up,0.0,5.0,40.0,1.0,5.0,30.0,15.0,5.0,15.0,30.0,30.0,60.0,RR,1.0,18.0,m,,right,2020_Feb_10_1715,habits_v_MRI,59.98773888812012,
1.0,1.0,resp2,stim/down_resp_img.png,"[0, -0.25]",up,stim/gold_coin.png,silver,,,,,training,,,gold,val,,,,,0.0,0.0,0.0,0.0,1.0,1.0,3.0,1.0,,,,,,,,,training resp,,245.87418414837884,8.20087024172608,3.0,,up,0.0,5.0,40.0,1.0,5.0,30.0,15.0,5.0,15.0,30.0,30.0,60.0,RR,1.0,18.0,m,,right,2020_Feb_10_1715,habits_v_MRI,59.98773888812012,
1.0,1.0,resp2,stim/down_resp_img.png,"[0, -0.25]",up,stim/gold_coin.png,silver,,,,,training,,,gold,val,,,,,0.0,0.0,0.0,0.0,1.0,1.0,3.0,1.0,,,,,,,,,training resp,,246.69102811746416,9.017737377373123,3.0,,up,0.0,5.0,40.0,1.0,5.0,30.0,15.0,5.0,15.0,30.0,30.0,60.0,RR,1.0,18.0,m,,right,2020_Feb_10_1715,habits_v_MRI,59.98773888812012,
1.0,1.0,resp2,stim/down_resp_img.png,"[0, -0.25]",up,stim/gold_coin.png,silver,,,,,training,,,gold,val,,,,,0.0,0.0,0.0,0.0,1.0,1.0,3.0,1.0,,,,,,,,,training resp,,247.4746016743848,9.801300084131071,3.0,,up,0.0,5.0,40.0,1.0,5.0,30.0,15.0,5.0,15.0,30.0,30.0,60.0,RR,1.0,18.0,m,,right,2020_Feb_10_1715,habits_v_MRI,59.98773888812012,
1.0,1.0,resp2,stim/down_resp_img.png,"[0, -0.25]",up,stim/gold_coin.png,silver,,,,,training,,,gold,val,,,,,0.0,0.0,0.0,0.0,1.0,1.0,3.0,1.0,,,,,,,,,training resp,,248.30811090743373,10.634820753839447,3.0,,up,0.0,5.0,40.0,1.0,5.0,30.0,15.0,5.0,15.0,30.0,30.0,60.0,RR,1.0,18.0,m,,right,2020_Feb_10_1715,habits_v_MRI,59.98773888812012,
1.0,1.0,resp2,stim/down_resp_img.png,"[0, -0.25]",up,stim/gold_coin.png,silver,,,,,training,,,gold,val,,,,,0.0,0.0,0.0,0.0,1.0,1.0,3.0,1.0,,,,,,,,,training resp,,249.02509994613135,11.351788971951464,3.0,,up,0.0,5.0,40.0,1.0,5.0,30.0,15.0,5.0,15.0,30.0,30.0,60.0,RR,1.0,18.0,m,,right,2020_Feb_10_1715,habits_v_MRI,59.98773888812012,
1.0,1.0,resp2,stim/down_resp_img.png,"[0, -0.25]",up,stim/gold_coin.png,silver,,,,,training,,,gold,val,,,,,0.0,0.0,0.0,0.0,1.0,1.0,3.0,1.0,,,,,,,,,training resp,,249.79194695032493,12.11865034528455,3.0,,up,0.0,5.0,40.0,1.0,5.0,30.0,15.0,5.0,15.0,30.0,30.0,60.0,RR,1.0,18.0,m,,right,2020_Feb_10_1715,habits_v_MRI,59.98773888812012,
1.0,1.0,resp2,stim/down_resp_img.png,"[0, -0.25]",up,stim/gold_coin.png,silver,,,,,training,,,gold,val,,,,,0.0,0.0,0.0,0.0,1.0,1.0,3.0,1.0,,,,,,,,,training resp,,250.60894487442783,12.93564416391746,3.0,10.0,up,1.0,5.0,40.0,1.0,5.0,30.0,15.0,5.0,15.0,30.0,30.0,60.0,RR,1.0,18.0,m,,right,2020_Feb_10_1715,habits_v_MRI,59.98773888812012,
1.0,1.0,resp2,stim/down_resp_img.png,"[0, -0.25]",up,stim/gold_coin.png,silver,,,,,training,,,gold,val,,,,,0.0,0.0,0.0,0.0,1.0,1.0,3.0,1.0,,,,,,,,,training resp,,251.85894905320677,14.185764762012695,3.0,,up,0.0,5.0,40.0,1.0,5.0,30.0,15.0,5.0,15.0,30.0,30.0,60.0,RR,1.0,18.0,m,,right,2020_Feb_10_1715,habits_v_MRI,59.98773888812012,
1.0,1.0,resp2,stim/down_resp_img.png,"[0, -0.25]",up,stim/gold_coin.png,silver,,,,,training,,,gold,val,,,,,0.0,0.0,0.0,0.0,1.0,1.0,3.0,1.0,,,,,,,,,training resp,,252.74281389301905,15.069509077042312,3.0,,up,0.0,5.0,40.0,1.0,5.0,30.0,15.0,5.0,15.0,30.0,30.0,60.0,RR,1.0,18.0,m,,right,2020_Feb_10_1715,habits_v_MRI,59.98773888812012,
1.0,1.0,resp2,stim/down_resp_img.png,"[0, -0.25]",up,stim/gold_coin.png,silver,,,,,training,,,gold,val,,,,,0.0,0.0,0.0,0.0,1.0,1.0,3.0,1.0,,,,,,,,,training resp,,253.5435477159372,15.870134691576824,3.0,,up,0.0,5.0,40.0,1.0,5.0,30.0,15.0,5.0,15.0,30.0,30.0,60.0,RR,1.0,18.0,m,,right,2020_Feb_10_1715,habits_v_MRI,59.98773888812012,
1.0,1.0,resp2,stim/down_resp_img.png,"[0, -0.25]",up,stim/gold_coin.png,silver,,,,,training,,,gold,val,,,,,0.0,0.0,0.0,0.0,1.0,1.0,3.0,1.0,,,,,,,,,training resp,,254.3434451965586,16.67003129245495,3.0,,up,0.0,5.0,40.0,1.0,5.0,30.0,15.0,5.0,15.0,30.0,30.0,60.0,RR,1.0,18.0,m,,right,2020_Feb_10_1715,habits_v_MRI,59.98773888812012,
1.0,1.0,resp2,stim/down_resp_img.png,"[0, -0.25]",up,stim/gold_coin.png,silver,,,,,training,,,gold,val,,,,,0.0,0.0,0.0,0.0,1.0,1.0,3.0,1.0,,,,,,,,,training resp,,255.2436961285748,17.57029630035686,3.0,,up,0.0,5.0,40.0,1.0,5.0,30.0,15.0,5.0,15.0,30.0,30.0,60.0,RR,1.0,18.0,m,,right,2020_Feb_10_1715,habits_v_MRI,59.98773888812012,
1.0,1.0,resp2,stim/down_resp_img.png,"[0, -0.25]",up,stim/gold_coin.png,silver,,,,,training,,,gold,val,,,,,0.0,0.0,0.0,0.0,1.0,1.0,3.0,1.0,,,,,,,,,training resp,,256.1612518976799,18.487741515098605,3.0,,up,0.0,5.0,40.0,1.0,5.0,30.0,15.0,5.0,15.0,30.0,30.0,60.0,RR,1.0,18.0,m,,right,2020_Feb_10_1715,habits_v_MRI,59.98773888812012,
1.0,1.0,resp2,stim/down_resp_img.png,"[0, -0.25]",up,stim/gold_coin.png,silver,,,,,training,,,gold,val,,,,,0.0,0.0,0.0,0.0,1.0,1.0,3.0,1.0,,,,,,,,,training resp,,257.1279026018965,19.45447902062369,3.0,,up,0.0,5.0,40.0,1.0,5.0,30.0,15.0,5.0,15.0,30.0,30.0,60.0,RR,1.0,18.0,m,,right,2020_Feb_10_1715,habits_v_MRI,59.98773888812012,
1.0,1.0,resp2,stim/down_resp_img.png,"[0, -0.25]",up,stim/gold_coin.png,silver,,,,,training,,,gold,val,,,,,0.0,0.0,0.0,0.0,1.0,1.0,3.0,1.0,,,,,,,,,training resp,,257.96111301558994,20.28778473980128,3.0,,up,0.0,5.0,40.0,1.0,5.0,30.0,15.0,5.0,15.0,30.0,30.0,60.0,RR,1.0,18.0,m,,right,2020_Feb_10_1715,habits_v_MRI,59.98773888812012,
1.0,1.0,resp2,stim/down_resp_img.png,"[0, -0.25]",up,stim/gold_coin.png,silver,,,,,training,,,gold,val,,,,,0.0,0.0,0.0,0.0,1.0,1.0,3.0,1.0,,,,,,,,,training resp,,258.7779584509117,21.10465627416488,3.0,,up,0.0,5.0,40.0,1.0,5.0,30.0,15.0,5.0,15.0,30.0,30.0,60.0,RR,1.0,18.0,m,,right,2020_Feb_10_1715,habits_v_MRI,59.98773888812012,
1.0,1.0,resp2,stim/down_resp_img.png,"[0, -0.25]",up,stim/gold_coin.png,silver,,,,,training,,,gold,val,,,,,0.0,0.0,0.0,0.0,1.0,1.0,3.0,1.0,,,,,,,,,training resp,,259.67899939209747,22.005121863458044,3.0,19.0,up,1.0,5.0,40.0,1.0,5.0,30.0,15.0,5.0,15.0,30.0,30.0,60.0,RR,1.0,18.0,m,,right,2020_Feb_10_1715,habits_v_MRI,59.98773888812012,
1.0,1.0,resp2,stim/down_resp_img.png,"[0, -0.25]",up,stim/gold_coin.png,silver,,,,,training,,,gold,val,,,,,0.0,0.0,0.0,0.0,1.0,1.0,3.0,1.0,,,,,,,,,training resp,,260.92864991421084,23.255346857720724,3.0,,up,0.0,5.0,40.0,1.0,5.0,30.0,15.0,5.0,15.0,30.0,30.0,60.0,RR,1.0,18.0,m,,right,2020_Feb_10_1715,habits_v_MRI,59.98773888812012,
1.0,1.0,resp2,stim/down_resp_img.png,"[0, -0.25]",up,stim/gold_coin.png,silver,,,,,training,,,gold,val,,,,,0.0,0.0,0.0,0.0,1.0,1.0,3.0,1.0,,,,,,,,,training resp,,261.7959793987648,24.1224907165124,3.0,,up,0.0,5.0,40.0,1.0,5.0,30.0,15.0,5.0,15.0,30.0,30.0,60.0,RR,1.0,18.0,m,,right,2020_Feb_10_1715,habits_v_MRI,59.98773888812012,
1.0,1.0,resp2,stim/down_resp_img.png,"[0, -0.25]",up,stim/gold_coin.png,silver,,,,,training,,,gold,val,,,,,0.0,0.0,0.0,0.0,1.0,1.0,3.0,1.0,,,,,,,,,training resp,,262.62948276686075,24.95601783766688,3.0,,up,0.0,5.0,40.0,1.0,5.0,30.0,15.0,5.0,15.0,30.0,30.0,60.0,RR,1.0,18.0,m,,right,2020_Feb_10_1715,habits_v_MRI,59.98773888812012,
1.0,1.0,resp2,stim/down_resp_img.png,"[0, -0.25]",up,stim/gold_coin.png,silver,,,,,training,,,gold,val,,,,,0.0,0.0,0.0,0.0,1.0,1.0,3.0,1.0,,,,,,,,,training resp,,263.3960435613517,25.72273405341184,3.0,,up,0.0,5.0,40.0,1.0,5.0,30.0,15.0,5.0,15.0,30.0,30.0,60.0,RR,1.0,18.0,m,,right,2020_Feb_10_1715,habits_v_MRI,59.98773888812012,
1.0,1.0,resp2,stim/down_resp_img.png,"[0, -0.25]",up,stim/gold_coin.png,silver,,,,,training,,,gold,val,,,,,0.0,0.0,0.0,0.0,1.0,1.0,3.0,1.0,,,,,,,,,training resp,,264.29653085097016,26.623120465839747,3.0,,up,0.0,5.0,40.0,1.0,5.0,30.0,15.0,5.0,15.0,30.0,30.0,60.0,RR,1.0,18.0,m,,right,2020_Feb_10_1715,habits_v_MRI,59.98773888812012,
1.0,1.0,resp2,stim/down_resp_img.png,"[0, -0.25]",up,stim/gold_coin.png,silver,,,,,training,,,gold,val,,,,,0.0,0.0,0.0,0.0,1.0,1.0,3.0,1.0,,,,,,,,,training resp,,265.163665912336,27.490096586978325,3.0,,up,0.0,5.0,40.0,1.0,5.0,30.0,15.0,5.0,15.0,30.0,30.0,60.0,RR,1.0,18.0,m,,right,2020_Feb_10_1715,habits_v_MRI,59.98773888812012,
1.0,1.0,resp2,stim/down_resp_img.png,"[0, -0.25]",up,stim/gold_coin.png,silver,,,,,training,,,gold,val,,,,,0.0,0.0,0.0,0.0,1.0,1.0,3.0,1.0,,,,,,,,,training resp,,266.0973514751968,28.423855461751373,3.0,,up,0.0,5.0,40.0,1.0,5.0,30.0,15.0,5.0,15.0,30.0,30.0,60.0,RR,1.0,18.0,m,,right,2020_Feb_10_1715,habits_v_MRI,59.98773888812012,
1.0,1.0,resp2,stim/down_resp_img.png,"[0, -0.25]",up,stim/gold_coin.png,silver,,,,,training,,,gold,val,,,,,0.0,0.0,0.0,0.0,1.0,1.0,3.0,1.0,,,,,,,,,training resp,,266.91398195999136,29.240636675836868,3.0,,up,0.0,5.0,40.0,1.0,5.0,30.0,15.0,5.0,15.0,30.0,30.0,60.0,RR,1.0,18.0,m,,right,2020_Feb_10_1715,habits_v_MRI,59.98773888812012,
1.0,1.0,resp2,stim/down_resp_img.png,"[0, -0.25]",up,stim/gold_coin.png,silver,,,,,training,,,gold,val,,,,,0.0,0.0,0.0,0.0,1.0,1.0,3.0,1.0,,,,,,,,,training resp,,267.6473224876645,29.974023243394186,3.0,,up,0.0,5.0,40.0,1.0,5.0,30.0,15.0,5.0,15.0,30.0,30.0,60.0,RR,1.0,18.0,m,,right,2020_Feb_10_1715,habits_v_MRI,59.98773888812012,
1.0,1.0,resp2,stim/down_resp_img.png,"[0, -0.25]",up,stim/gold_coin.png,silver,,,,,training,,,gold,val,,,,,0.0,0.0,0.0,0.0,1.0,1.0,3.0,1.0,,,,,,,,,training resp,,268.48155545591726,30.80813803284036,3.0,,up,0.0,5.0,40.0,1.0,5.0,30.0,15.0,5.0,15.0,30.0,30.0,60.0,RR,1.0,18.0,m,,right,2020_Feb_10_1715,habits_v_MRI,59.98773888812012,
1.0,1.0,resp2,stim/down_resp_img.png,"[0, -0.25]",up,stim/gold_coin.png,silver,,,,,training,,,gold,val,,,,,0.0,0.0,0.0,0.0,1.0,1.0,3.0,1.0,,,,,,,,,training resp,,269.21476167616856,31.541458033181694,3.0,,up,0.0,5.0,40.0,1.0,5.0,30.0,15.0,5.0,15.0,30.0,30.0,60.0,RR,1.0,18.0,m,,right,2020_Feb_10_1715,habits_v_MRI,59.98773888812012,
1.0,1.0,resp2,stim/down_resp_img.png,"[0, -0.25]",up,stim/gold_coin.png,silver,,,,,training,,,gold,val,,,,,0.0,0.0,0.0,0.0,1.0,1.0,3.0,1.0,,,,,,,,,training resp,,269.9485344508794,32.27500060848979,3.0,,up,0.0,5.0,40.0,1.0,5.0,30.0,15.0,5.0,15.0,30.0,30.0,60.0,RR,1.0,18.0,m,,right,2020_Feb_10_1715,habits_v_MRI,59.98773888812012,
1.0,1.0,resp2,stim/down_resp_img.png,"[0, -0.25]",up,stim/gold_coin.png,silver,,,,,training,,,gold,val,,,,,0.0,0.0,0.0,0.0,1.0,1.0,3.0,1.0,,,,,,,,,training resp,,270.64859430272554,32.97517834588871,3.0,,up,0.0,5.0,40.0,1.0,5.0,30.0,15.0,5.0,15.0,30.0,30.0,60.0,RR,1.0,18.0,m,,right,2020_Feb_10_1715,habits_v_MRI,59.98773888812012,
1.0,1.0,resp2,stim/down_resp_img.png,"[0, -0.25]",up,stim/gold_coin.png,silver,,,,,training,,,gold,val,,,,,0.0,0.0,0.0,0.0,1.0,1.0,3.0,1.0,,,,,,,,,training resp,,271.2988111447012,33.62537143480586,3.0,,up,0.0,5.0,40.0,1.0,5.0,30.0,15.0,5.0,15.0,30.0,30.0,60.0,RR,1.0,18.0,m,,right,2020_Feb_10_1715,habits_v_MRI,59.98773888812012,
1.0,1.0,resp2,stim/down_resp_img.png,"[0, -0.25]",up,stim/gold_coin.png,silver,,,,,training,,,gold,val,,,,,0.0,0.0,0.0,0.0,1.0,1.0,3.0,1.0,,,,,,,,,training resp,,271.9822145300095,34.308900036859995,3.0,,up,0.0,5.0,40.0,1.0,5.0,30.0,15.0,5.0,15.0,30.0,30.0,60.0,RR,1.0,18.0,m,,right,2020_Feb_10_1715,habits_v_MRI,59.98773888812012,
1.0,1.0,resp2,stim/down_resp_img.png,"[0, -0.25]",up,stim/gold_coin.png,silver,,,,,training,,,gold,val,,,,,0.0,0.0,0.0,0.0,1.0,1.0,3.0,1.0,,,,,,,,,training resp,,272.7496386455823,35.07622386173534,3.0,,up,0.0,5.0,40.0,1.0,5.0,30.0,15.0,5.0,15.0,30.0,30.0,60.0,RR,1.0,18.0,m,,right,2020_Feb_10_1715,habits_v_MRI,59.98773888812012,
1.0,1.0,resp2,stim/down_resp_img.png,"[0, -0.25]",up,stim/gold_coin.png,silver,,,,,training,,,gold,val,,,,,0.0,0.0,0.0,0.0,1.0,1.0,3.0,1.0,,,,,,,,,training resp,,273.51653344914666,35.84300195273681,3.0,,up,0.0,5.0,40.0,1.0,5.0,30.0,15.0,5.0,15.0,30.0,30.0,60.0,RR,1.0,18.0,m,,right,2020_Feb_10_1715,habits_v_MRI,59.98773888812012,
1.0,1.0,resp2,stim/down_resp_img.png,"[0, -0.25]",up,stim/gold_coin.png,silver,,,,,training,,,gold,val,,,,,0.0,0.0,0.0,0.0,1.0,1.0,3.0,1.0,,,,,,,,,training resp,,274.2329682497839,36.55965375663436,3.0,,up,0.0,5.0,40.0,1.0,5.0,30.0,15.0,5.0,15.0,30.0,30.0,60.0,RR,1.0,18.0,m,,right,2020_Feb_10_1715,habits_v_MRI,59.98773888812012,
1.0,1.0,resp2,stim/down_resp_img.png,"[0, -0.25]",up,stim/gold_coin.png,silver,,,,,training,,,gold,val,,,,,0.0,0.0,0.0,0.0,1.0,1.0,3.0,1.0,,,,,,,,,ITI start,16.666666666666668,274.8510530669737,37.17643127579868,,,,,5.0,40.0,1.0,5.0,30.0,15.0,5.0,15.0,30.0,30.0,60.0,RR,1.0,18.0,m,,right,2020_Feb_10_1715,habits_v_MRI,59.98773888812012,
1.0,0.0,resp1,stim/up_resp_img.png,"[0, 0.25]",down,stim/silver_coin.png,silver,,,,,training,,,silver,deval,,,,,0.0,0.0,0.0,0.0,2.0,0.0,4.0,0.0,,,,,,,,,training period start,30.0,291.56010858374066,0.0,4.0,14.0,,,5.0,40.0,1.0,5.0,30.0,15.0,5.0,15.0,30.0,30.0,60.0,RR,1.0,18.0,m,,right,2020_Feb_10_1715,habits_v_MRI,59.98773888812012,
1.0,0.0,resp1,stim/up_resp_img.png,"[0, 0.25]",down,stim/silver_coin.png,silver,,,,,training,,,silver,deval,,,,,0.0,0.0,0.0,0.0,2.0,0.0,4.0,0.0,,,,,,,,,training resp,,292.9717271142945,1.4320625837390253,4.0,,down,0.0,5.0,40.0,1.0,5.0,30.0,15.0,5.0,15.0,30.0,30.0,60.0,RR,1.0,18.0,m,,right,2020_Feb_10_1715,habits_v_MRI,59.98773888812012,
1.0,0.0,resp1,stim/up_resp_img.png,"[0, 0.25]",down,stim/silver_coin.png,silver,,,,,training,,,silver,deval,,,,,0.0,0.0,0.0,0.0,2.0,0.0,4.0,0.0,,,,,,,,,training resp,,293.55517205279466,2.0155400727308006,4.0,,down,0.0,5.0,40.0,1.0,5.0,30.0,15.0,5.0,15.0,30.0,30.0,60.0,RR,1.0,18.0,m,,right,2020_Feb_10_1715,habits_v_MRI,59.98773888812012,
1.0,0.0,resp1,stim/up_resp_img.png,"[0, 0.25]",down,stim/silver_coin.png,silver,,,,,training,,,silver,deval,,,,,0.0,0.0,0.0,0.0,2.0,0.0,4.0,0.0,,,,,,,,,training resp,,294.2887624274699,2.749139831328648,4.0,,down,0.0,5.0,40.0,1.0,5.0,30.0,15.0,5.0,15.0,30.0,30.0,60.0,RR,1.0,18.0,m,,right,2020_Feb_10_1715,habits_v_MRI,59.98773888812012,
1.0,0.0,resp1,stim/up_resp_img.png,"[0, 0.25]",down,stim/silver_coin.png,silver,,,,,training,,,silver,deval,,,,,0.0,0.0,0.0,0.0,2.0,0.0,4.0,0.0,,,,,,,,,training resp,,295.1227860168947,3.5830311660647567,4.0,,down,0.0,5.0,40.0,1.0,5.0,30.0,15.0,5.0,15.0,30.0,30.0,60.0,RR,1.0,18.0,m,,right,2020_Feb_10_1715,habits_v_MRI,59.98773888812012,
1.0,0.0,resp1,stim/up_resp_img.png,"[0, 0.25]",down,stim/silver_coin.png,silver,,,,,training,,,silver,deval,,,,,0.0,0.0,0.0,0.0,2.0,0.0,4.0,0.0,,,,,,,,,training resp,,296.02310175664024,4.48333693539098,4.0,,down,0.0,5.0,40.0,1.0,5.0,30.0,15.0,5.0,15.0,30.0,30.0,60.0,RR,1.0,18.0,m,,right,2020_Feb_10_1715,habits_v_MRI,59.98773888812012,
1.0,0.0,resp1,stim/up_resp_img.png,"[0, 0.25]",down,stim/silver_coin.png,silver,,,,,training,,,silver,deval,,,,,0.0,0.0,0.0,0.0,2.0,0.0,4.0,0.0,,,,,,,,,training resp,,296.80644863312773,5.266449800252303,4.0,,down,0.0,5.0,40.0,1.0,5.0,30.0,15.0,5.0,15.0,30.0,30.0,60.0,RR,1.0,18.0,m,,right,2020_Feb_10_1715,habits_v_MRI,59.98773888812012,
1.0,0.0,resp1,stim/up_resp_img.png,"[0, 0.25]",down,stim/silver_coin.png,silver,,,,,training,,,silver,deval,,,,,0.0,0.0,0.0,0.0,2.0,0.0,4.0,0.0,,,,,,,,,training resp,,297.6897662728261,6.150141917198198,4.0,,down,0.0,5.0,40.0,1.0,5.0,30.0,15.0,5.0,15.0,30.0,30.0,60.0,RR,1.0,18.0,m,,right,2020_Feb_10_1715,habits_v_MRI,59.98773888812012,
1.0,0.0,resp1,stim/up_resp_img.png,"[0, 0.25]",down,stim/silver_coin.png,silver,,,,,training,,,silver,deval,,,,,0.0,0.0,0.0,0.0,2.0,0.0,4.0,0.0,,,,,,,,,training resp,,298.60669097298523,7.067043744042167,4.0,,down,0.0,5.0,40.0,1.0,5.0,30.0,15.0,5.0,15.0,30.0,30.0,60.0,RR,1.0,18.0,m,,right,2020_Feb_10_1715,habits_v_MRI,59.98773888812012,
1.0,0.0,resp1,stim/up_resp_img.png,"[0, 0.25]",down,stim/silver_coin.png,silver,,,,,training,,,silver,deval,,,,,0.0,0.0,0.0,0.0,2.0,0.0,4.0,0.0,,,,,,,,,training resp,,299.4741125373039,7.934361498693761,4.0,,down,0.0,5.0,40.0,1.0,5.0,30.0,15.0,5.0,15.0,30.0,30.0,60.0,RR,1.0,18.0,m,,right,2020_Feb_10_1715,habits_v_MRI,59.98773888812012,
1.0,0.0,resp1,stim/up_resp_img.png,"[0, 0.25]",down,stim/silver_coin.png,silver,,,,,training,,,silver,deval,,,,,0.0,0.0,0.0,0.0,2.0,0.0,4.0,0.0,,,,,,,,,training resp,,300.407774053856,8.867963192726165,4.0,,down,0.0,5.0,40.0,1.0,5.0,30.0,15.0,5.0,15.0,30.0,30.0,60.0,RR,1.0,18.0,m,,right,2020_Feb_10_1715,habits_v_MRI,59.98773888812012,
1.0,0.0,resp1,stim/up_resp_img.png,"[0, 0.25]",down,stim/silver_coin.png,silver,,,,,training,,,silver,deval,,,,,0.0,0.0,0.0,0.0,2.0,0.0,4.0,0.0,,,,,,,,,training resp,,301.2911415456547,9.751237725016836,4.0,,down,0.0,5.0,40.0,1.0,5.0,30.0,15.0,5.0,15.0,30.0,30.0,60.0,RR,1.0,18.0,m,,right,2020_Feb_10_1715,habits_v_MRI,59.98773888812012,
1.0,0.0,resp1,stim/up_resp_img.png,"[0, 0.25]",down,stim/silver_coin.png,silver,,,,,training,,,silver,deval,,,,,0.0,0.0,0.0,0.0,2.0,0.0,4.0,0.0,,,,,,,,,training resp,,302.0243923395501,10.484759186492738,4.0,,down,0.0,5.0,40.0,1.0,5.0,30.0,15.0,5.0,15.0,30.0,30.0,60.0,RR,1.0,18.0,m,,right,2020_Feb_10_1715,habits_v_MRI,59.98773888812012,
1.0,0.0,resp1,stim/up_resp_img.png,"[0, 0.25]",down,stim/silver_coin.png,silver,,,,,training,,,silver,deval,,,,,0.0,0.0,0.0,0.0,2.0,0.0,4.0,0.0,,,,,,,,,training resp,,302.8418313081165,11.302045373035073,4.0,,down,0.0,5.0,40.0,1.0,5.0,30.0,15.0,5.0,15.0,30.0,30.0,60.0,RR,1.0,18.0,m,,right,2020_Feb_10_1715,habits_v_MRI,59.98773888812012,
1.0,0.0,resp1,stim/up_resp_img.png,"[0, 0.25]",down,stim/silver_coin.png,silver,,,,,training,,,silver,deval,,,,,0.0,0.0,0.0,0.0,2.0,0.0,4.0,0.0,,,,,,,,,training resp,,303.6915325034206,12.151890552937402,4.0,14.0,down,1.0,5.0,40.0,1.0,5.0,30.0,15.0,5.0,15.0,30.0,30.0,60.0,RR,1.0,18.0,m,,right,2020_Feb_10_1715,habits_v_MRI,59.98773888812012,
1.0,0.0,resp1,stim/up_resp_img.png,"[0, 0.25]",down,stim/silver_coin.png,silver,,,,,training,,,silver,deval,,,,,0.0,0.0,0.0,0.0,2.0,0.0,4.0,0.0,,,,,,,,,training resp,,304.9083882610612,13.368954516408849,4.0,,down,0.0,5.0,40.0,1.0,5.0,30.0,15.0,5.0,15.0,30.0,30.0,60.0,RR,1.0,18.0,m,,right,2020_Feb_10_1715,habits_v_MRI,59.98773888812012,
1.0,0.0,resp1,stim/up_resp_img.png,"[0, 0.25]",down,stim/silver_coin.png,silver,,,,,training,,,silver,deval,,,,,0.0,0.0,0.0,0.0,2.0,0.0,4.0,0.0,,,,,,,,,training resp,,305.7919161593236,14.252356318182136,4.0,,down,0.0,5.0,40.0,1.0,5.0,30.0,15.0,5.0,15.0,30.0,30.0,60.0,RR,1.0,18.0,m,,right,2020_Feb_10_1715,habits_v_MRI,59.98773888812012,
1.0,0.0,resp1,stim/up_resp_img.png,"[0, 0.25]",down,stim/silver_coin.png,silver,,,,,training,,,silver,deval,,,,,0.0,0.0,0.0,0.0,2.0,0.0,4.0,0.0,,,,,,,,,training resp,,306.65899198466286,15.119496658000571,4.0,,down,0.0,5.0,40.0,1.0,5.0,30.0,15.0,5.0,15.0,30.0,30.0,60.0,RR,1.0,18.0,m,,right,2020_Feb_10_1715,habits_v_MRI,59.98773888812012,
1.0,0.0,resp1,stim/up_resp_img.png,"[0, 0.25]",down,stim/silver_coin.png,silver,,,,,training,,,silver,deval,,,,,0.0,0.0,0.0,0.0,2.0,0.0,4.0,0.0,,,,,,,,,training resp,,307.4762303718344,15.936597218780662,4.0,,down,0.0,5.0,40.0,1.0,5.0,30.0,15.0,5.0,15.0,30.0,30.0,60.0,RR,1.0,18.0,m,,right,2020_Feb_10_1715,habits_v_MRI,59.98773888812012,
1.0,0.0,resp1,stim/up_resp_img.png,"[0, 0.25]",down,stim/silver_coin.png,silver,,,,,training,,,silver,deval,,,,,0.0,0.0,0.0,0.0,2.0,0.0,4.0,0.0,,,,,,,,,training resp,,308.4432895700302,16.903544689619594,4.0,,down,0.0,5.0,40.0,1.0,5.0,30.0,15.0,5.0,15.0,30.0,30.0,60.0,RR,1.0,18.0,m,,right,2020_Feb_10_1715,habits_v_MRI,59.98773888812012,
1.0,0.0,resp1,stim/up_resp_img.png,"[0, 0.25]",down,stim/silver_coin.png,silver,,,,,training,,,silver,deval,,,,,0.0,0.0,0.0,0.0,2.0,0.0,4.0,0.0,,,,,,,,,training resp,,309.4600131902771,17.920352178694884,4.0,,down,0.0,5.0,40.0,1.0,5.0,30.0,15.0,5.0,15.0,30.0,30.0,60.0,RR,1.0,18.0,m,,right,2020_Feb_10_1715,habits_v_MRI,59.98773888812012,
1.0,0.0,resp1,stim/up_resp_img.png,"[0, 0.25]",down,stim/silver_coin.png,silver,,,,,training,,,silver,deval,,,,,0.0,0.0,0.0,0.0,2.0,0.0,4.0,0.0,,,,,,,,,training resp,,310.4772972067876,18.937542062707507,4.0,,down,0.0,5.0,40.0,1.0,5.0,30.0,15.0,5.0,15.0,30.0,30.0,60.0,RR,1.0,18.0,m,,right,2020_Feb_10_1715,habits_v_MRI,59.98773888812012,
1.0,0.0,resp1,stim/up_resp_img.png,"[0, 0.25]",down,stim/silver_coin.png,silver,,,,,training,,,silver,deval,,,,,0.0,0.0,0.0,0.0,2.0,0.0,4.0,0.0,,,,,,,,,training resp,,311.3942295313864,19.854491102425527,4.0,,down,0.0,5.0,40.0,1.0,5.0,30.0,15.0,5.0,15.0,30.0,30.0,60.0,RR,1.0,18.0,m,,right,2020_Feb_10_1715,habits_v_MRI,59.98773888812012,
1.0,0.0,resp1,stim/up_resp_img.png,"[0, 0.25]",down,stim/silver_coin.png,silver,,,,,training,,,silver,deval,,,,,0.0,0.0,0.0,0.0,2.0,0.0,4.0,0.0,,,,,,,,,training resp,,312.3444431183125,20.8047126070378,4.0,,down,0.0,5.0,40.0,1.0,5.0,30.0,15.0,5.0,15.0,30.0,30.0,60.0,RR,1.0,18.0,m,,right,2020_Feb_10_1715,habits_v_MRI,59.98773888812012,
1.0,0.0,resp1,stim/up_resp_img.png,"[0, 0.25]",down,stim/silver_coin.png,silver,,,,,training,,,silver,deval,,,,,0.0,0.0,0.0,0.0,2.0,0.0,4.0,0.0,,,,,,,,,training resp,,313.36090809413145,21.821458220860222,4.0,,down,0.0,5.0,40.0,1.0,5.0,30.0,15.0,5.0,15.0,30.0,30.0,60.0,RR,1.0,18.0,m,,right,2020_Feb_10_1715,habits_v_MRI,59.98773888812012,
1.0,0.0,resp1,stim/up_resp_img.png,"[0, 0.25]",down,stim/silver_coin.png,silver,,,,,training,,,silver,deval,,,,,0.0,0.0,0.0,0.0,2.0,0.0,4.0,0.0,,,,,,,,,training resp,,314.1111731166966,22.57174230452074,4.0,,down,0.0,5.0,40.0,1.0,5.0,30.0,15.0,5.0,15.0,30.0,30.0,60.0,RR,1.0,18.0,m,,right,2020_Feb_10_1715,habits_v_MRI,59.98773888812012,
1.0,0.0,resp1,stim/up_resp_img.png,"[0, 0.25]",down,stim/silver_coin.png,silver,,,,,training,,,silver,deval,,,,,0.0,0.0,0.0,0.0,2.0,0.0,4.0,0.0,,,,,,,,,training resp,,315.0282573435797,23.488688118512076,4.0,,down,0.0,5.0,40.0,1.0,5.0,30.0,15.0,5.0,15.0,30.0,30.0,60.0,RR,1.0,18.0,m,,right,2020_Feb_10_1715,habits_v_MRI,59.98773888812012,
1.0,0.0,resp1,stim/up_resp_img.png,"[0, 0.25]",down,stim/silver_coin.png,silver,,,,,training,,,silver,deval,,,,,0.0,0.0,0.0,0.0,2.0,0.0,4.0,0.0,,,,,,,,,training resp,,315.97888675567447,24.439228090071992,4.0,,down,0.0,5.0,40.0,1.0,5.0,30.0,15.0,5.0,15.0,30.0,30.0,60.0,RR,1.0,18.0,m,,right,2020_Feb_10_1715,habits_v_MRI,59.98773888812012,
1.0,0.0,resp1,stim/up_resp_img.png,"[0, 0.25]",down,stim/silver_coin.png,silver,,,,,training,,,silver,deval,,,,,0.0,0.0,0.0,0.0,2.0,0.0,4.0,0.0,,,,,,,,,training resp,,316.9130198144485,25.373115407317528,4.0,10.0,down,1.0,5.0,40.0,1.0,5.0,30.0,15.0,5.0,15.0,30.0,30.0,60.0,RR,1.0,18.0,m,,right,2020_Feb_10_1715,habits_v_MRI,59.98773888812012,
1.0,0.0,resp1,stim/up_resp_img.png,"[0, 0.25]",down,stim/silver_coin.png,silver,,,,,training,,,silver,deval,,,,,0.0,0.0,0.0,0.0,2.0,0.0,4.0,0.0,,,,,,,,,training resp,,318.12970666144247,26.589945945659565,4.0,,down,0.0,5.0,40.0,1.0,5.0,30.0,15.0,5.0,15.0,30.0,30.0,60.0,RR,1.0,18.0,m,,right,2020_Feb_10_1715,habits_v_MRI,59.98773888812012,
1.0,0.0,resp1,stim/up_resp_img.png,"[0, 0.25]",down,stim/silver_coin.png,silver,,,,,training,,,silver,deval,,,,,0.0,0.0,0.0,0.0,2.0,0.0,4.0,0.0,,,,,,,,,training resp,,318.87976289168,27.340054373977186,4.0,,down,0.0,5.0,40.0,1.0,5.0,30.0,15.0,5.0,15.0,30.0,30.0,60.0,RR,1.0,18.0,m,,right,2020_Feb_10_1715,habits_v_MRI,59.98773888812012,
1.0,0.0,resp1,stim/up_resp_img.png,"[0, 0.25]",down,stim/silver_coin.png,silver,,,,,training,,,silver,deval,,,,,0.0,0.0,0.0,0.0,2.0,0.0,4.0,0.0,,,,,,,,,training resp,,319.83013747156656,28.290549478646422,4.0,,down,0.0,5.0,40.0,1.0,5.0,30.0,15.0,5.0,15.0,30.0,30.0,60.0,RR,1.0,18.0,m,,right,2020_Feb_10_1715,habits_v_MRI,59.98773888812012,
1.0,0.0,resp1,stim/up_resp_img.png,"[0, 0.25]",down,stim/silver_coin.png,silver,,,,,training,,,silver,deval,,,,,0.0,0.0,0.0,0.0,2.0,0.0,4.0,0.0,,,,,,,,,training resp,,320.63016632713334,29.090535813309543,4.0,,down,0.0,5.0,40.0,1.0,5.0,30.0,15.0,5.0,15.0,30.0,30.0,60.0,RR,1.0,18.0,m,,right,2020_Feb_10_1715,habits_v_MRI,59.98773888812012,
1.0,0.0,resp1,stim/up_resp_img.png,"[0, 0.25]",down,stim/silver_coin.png,silver,,,,,training,,,silver,deval,,,,,0.0,0.0,0.0,0.0,2.0,0.0,4.0,0.0,,,,,,,,,ITI start,15.0,321.21512911547325,29.674186611660843,,,,,5.0,40.0,1.0,5.0,30.0,15.0,5.0,15.0,30.0,30.0,60.0,RR,1.0,18.0,m,,right,2020_Feb_10_1715,habits_v_MRI,59.98773888812012,
1.0,1.0,resp2,stim/down_resp_img.png,"[0, -0.25]",up,stim/gold_coin.png,silver,,,,,training,,,gold,val,,,,,0.0,0.0,0.0,0.0,2.0,1.0,5.0,1.0,,,,,,,,,training period start,45.0,336.25563189443346,0.0,5.0,16.0,,,5.0,40.0,1.0,5.0,30.0,15.0,5.0,15.0,30.0,30.0,60.0,RR,1.0,18.0,m,,right,2020_Feb_10_1715,habits_v_MRI,59.98773888812012,
1.0,1.0,resp2,stim/down_resp_img.png,"[0, -0.25]",up,stim/gold_coin.png,silver,,,,,training,,,gold,val,,,,,0.0,0.0,0.0,0.0,2.0,1.0,5.0,1.0,,,,,,,,,training resp,,337.51824132346155,1.281787825355423,5.0,,up,0.0,5.0,40.0,1.0,5.0,30.0,15.0,5.0,15.0,30.0,30.0,60.0,RR,1.0,18.0,m,,right,2020_Feb_10_1715,habits_v_MRI,59.98773888812012,
1.0,1.0,resp2,stim/down_resp_img.png,"[0, -0.25]",up,stim/gold_coin.png,silver,,,,,training,,,gold,val,,,,,0.0,0.0,0.0,0.0,2.0,1.0,5.0,1.0,,,,,,,,,training resp,,338.2686465184015,2.03202938810864,5.0,,up,0.0,5.0,40.0,1.0,5.0,30.0,15.0,5.0,15.0,30.0,30.0,60.0,RR,1.0,18.0,m,,right,2020_Feb_10_1715,habits_v_MRI,59.98773888812012,
1.0,1.0,resp2,stim/down_resp_img.png,"[0, -0.25]",up,stim/gold_coin.png,silver,,,,,training,,,gold,val,,,,,0.0,0.0,0.0,0.0,2.0,1.0,5.0,1.0,,,,,,,,,training resp,,339.1353681005785,2.8989448069805803,5.0,,up,0.0,5.0,40.0,1.0,5.0,30.0,15.0,5.0,15.0,30.0,30.0,60.0,RR,1.0,18.0,m,,right,2020_Feb_10_1715,habits_v_MRI,59.98773888812012,
1.0,1.0,resp2,stim/down_resp_img.png,"[0, -0.25]",up,stim/gold_coin.png,silver,,,,,training,,,gold,val,,,,,0.0,0.0,0.0,0.0,2.0,1.0,5.0,1.0,,,,,,,,,training resp,,339.9523584002381,3.715799626228545,5.0,,up,0.0,5.0,40.0,1.0,5.0,30.0,15.0,5.0,15.0,30.0,30.0,60.0,RR,1.0,18.0,m,,right,2020_Feb_10_1715,habits_v_MRI,59.98773888812012,
1.0,1.0,resp2,stim/down_resp_img.png,"[0, -0.25]",up,stim/gold_coin.png,silver,,,,,training,,,gold,val,,,,,0.0,0.0,0.0,0.0,2.0,1.0,5.0,1.0,,,,,,,,,training resp,,340.73586568319297,4.499433005668834,5.0,,up,0.0,5.0,40.0,1.0,5.0,30.0,15.0,5.0,15.0,30.0,30.0,60.0,RR,1.0,18.0,m,,right,2020_Feb_10_1715,habits_v_MRI,59.98773888812012,
1.0,1.0,resp2,stim/down_resp_img.png,"[0, -0.25]",up,stim/gold_coin.png,silver,,,,,training,,,gold,val,,,,,0.0,0.0,0.0,0.0,2.0,1.0,5.0,1.0,,,,,,,,,training resp,,341.55279322785645,5.316357911102386,5.0,,up,0.0,5.0,40.0,1.0,5.0,30.0,15.0,5.0,15.0,30.0,30.0,60.0,RR,1.0,18.0,m,,right,2020_Feb_10_1715,habits_v_MRI,59.98773888812012,
1.0,1.0,resp2,stim/down_resp_img.png,"[0, -0.25]",up,stim/gold_coin.png,silver,,,,,training,,,gold,val,,,,,0.0,0.0,0.0,0.0,2.0,1.0,5.0,1.0,,,,,,,,,training resp,,342.3696357307017,6.133217422313464,5.0,,up,0.0,5.0,40.0,1.0,5.0,30.0,15.0,5.0,15.0,30.0,30.0,60.0,RR,1.0,18.0,m,,right,2020_Feb_10_1715,habits_v_MRI,59.98773888812012,
1.0,1.0,resp2,stim/down_resp_img.png,"[0, -0.25]",up,stim/gold_coin.png,silver,,,,,training,,,gold,val,,,,,0.0,0.0,0.0,0.0,2.0,1.0,5.0,1.0,,,,,,,,,training resp,,343.1707018032066,6.933992593152652,5.0,,up,0.0,5.0,40.0,1.0,5.0,30.0,15.0,5.0,15.0,30.0,30.0,60.0,RR,1.0,18.0,m,,right,2020_Feb_10_1715,habits_v_MRI,59.98773888812012,
1.0,1.0,resp2,stim/down_resp_img.png,"[0, -0.25]",up,stim/gold_coin.png,silver,,,,,training,,,gold,val,,,,,0.0,0.0,0.0,0.0,2.0,1.0,5.0,1.0,,,,,,,,,training resp,,344.0371512515667,7.800621802318346,5.0,,up,0.0,5.0,40.0,1.0,5.0,30.0,15.0,5.0,15.0,30.0,30.0,60.0,RR,1.0,18.0,m,,right,2020_Feb_10_1715,habits_v_MRI,59.98773888812012,
1.0,1.0,resp2,stim/down_resp_img.png,"[0, -0.25]",up,stim/gold_coin.png,silver,,,,,training,,,gold,val,,,,,0.0,0.0,0.0,0.0,2.0,1.0,5.0,1.0,,,,,,,,,training resp,,344.88740433895146,8.650868731503579,5.0,,up,0.0,5.0,40.0,1.0,5.0,30.0,15.0,5.0,15.0,30.0,30.0,60.0,RR,1.0,18.0,m,,right,2020_Feb_10_1715,habits_v_MRI,59.98773888812012,
1.0,1.0,resp2,stim/down_resp_img.png,"[0, -0.25]",up,stim/gold_coin.png,silver,,,,,training,,,gold,val,,,,,0.0,0.0,0.0,0.0,2.0,1.0,5.0,1.0,,,,,,,,,training resp,,345.7209616646141,9.484415207003622,5.0,,up,0.0,5.0,40.0,1.0,5.0,30.0,15.0,5.0,15.0,30.0,30.0,60.0,RR,1.0,18.0,m,,right,2020_Feb_10_1715,habits_v_MRI,59.98773888812012,
1.0,1.0,resp2,stim/down_resp_img.png,"[0, -0.25]",up,stim/gold_coin.png,silver,,,,,training,,,gold,val,,,,,0.0,0.0,0.0,0.0,2.0,1.0,5.0,1.0,,,,,,,,,training resp,,346.4878042700948,10.251266609913728,5.0,,up,0.0,5.0,40.0,1.0,5.0,30.0,15.0,5.0,15.0,30.0,30.0,60.0,RR,1.0,18.0,m,,right,2020_Feb_10_1715,habits_v_MRI,59.98773888812012,
1.0,1.0,resp2,stim/down_resp_img.png,"[0, -0.25]",up,stim/gold_coin.png,silver,,,,,training,,,gold,val,,,,,0.0,0.0,0.0,0.0,2.0,1.0,5.0,1.0,,,,,,,,,training resp,,347.3552226086904,11.118544482884316,5.0,,up,0.0,5.0,40.0,1.0,5.0,30.0,15.0,5.0,15.0,30.0,30.0,60.0,RR,1.0,18.0,m,,right,2020_Feb_10_1715,habits_v_MRI,59.98773888812012,
1.0,1.0,resp2,stim/down_resp_img.png,"[0, -0.25]",up,stim/gold_coin.png,silver,,,,,training,,,gold,val,,,,,0.0,0.0,0.0,0.0,2.0,1.0,5.0,1.0,,,,,,,,,training resp,,348.1883840500268,11.951858412998265,5.0,,up,0.0,5.0,40.0,1.0,5.0,30.0,15.0,5.0,15.0,30.0,30.0,60.0,RR,1.0,18.0,m,,right,2020_Feb_10_1715,habits_v_MRI,59.98773888812012,
1.0,1.0,resp2,stim/down_resp_img.png,"[0, -0.25]",up,stim/gold_coin.png,silver,,,,,training,,,gold,val,,,,,0.0,0.0,0.0,0.0,2.0,1.0,5.0,1.0,,,,,,,,,training resp,,348.9556917462796,12.719041185751848,5.0,,up,0.0,5.0,40.0,1.0,5.0,30.0,15.0,5.0,15.0,30.0,30.0,60.0,RR,1.0,18.0,m,,right,2020_Feb_10_1715,habits_v_MRI,59.98773888812012,
1.0,1.0,resp2,stim/down_resp_img.png,"[0, -0.25]",up,stim/gold_coin.png,silver,,,,,training,,,gold,val,,,,,0.0,0.0,0.0,0.0,2.0,1.0,5.0,1.0,,,,,,,,,training resp,,349.65596273643314,13.419261150815146,5.0,16.0,up,1.0,5.0,40.0,1.0,5.0,30.0,15.0,5.0,15.0,30.0,30.0,60.0,RR,1.0,18.0,m,,right,2020_Feb_10_1715,habits_v_MRI,59.98773888812012,
1.0,1.0,resp2,stim/down_resp_img.png,"[0, -0.25]",up,stim/gold_coin.png,silver,,,,,training,,,gold,val,,,,,0.0,0.0,0.0,0.0,2.0,1.0,5.0,1.0,,,,,,,,,training resp,,350.72237159931683,14.485984081929928,5.0,,up,0.0,5.0,40.0,1.0,5.0,30.0,15.0,5.0,15.0,30.0,30.0,60.0,RR,1.0,18.0,m,,right,2020_Feb_10_1715,habits_v_MRI,59.98773888812012,
1.0,1.0,resp2,stim/down_resp_img.png,"[0, -0.25]",up,stim/gold_coin.png,silver,,,,,training,,,gold,val,,,,,0.0,0.0,0.0,0.0,2.0,1.0,5.0,1.0,,,,,,,,,training resp,,351.38932291170204,15.15293803354507,5.0,,up,0.0,5.0,40.0,1.0,5.0,30.0,15.0,5.0,15.0,30.0,30.0,60.0,RR,1.0,18.0,m,,right,2020_Feb_10_1715,habits_v_MRI,59.98773888812012,
1.0,1.0,resp2,stim/down_resp_img.png,"[0, -0.25]",up,stim/gold_coin.png,silver,,,,,training,,,gold,val,,,,,0.0,0.0,0.0,0.0,2.0,1.0,5.0,1.0,,,,,,,,,training resp,,352.15623325739216,15.919640173404332,5.0,,up,0.0,5.0,40.0,1.0,5.0,30.0,15.0,5.0,15.0,30.0,30.0,60.0,RR,1.0,18.0,m,,right,2020_Feb_10_1715,habits_v_MRI,59.98773888812012,
1.0,1.0,resp2,stim/down_resp_img.png,"[0, -0.25]",up,stim/gold_coin.png,silver,,,,,training,,,gold,val,,,,,0.0,0.0,0.0,0.0,2.0,1.0,5.0,1.0,,,,,,,,,training resp,,352.8232347151243,16.586459524347447,5.0,,up,0.0,5.0,40.0,1.0,5.0,30.0,15.0,5.0,15.0,30.0,30.0,60.0,RR,1.0,18.0,m,,right,2020_Feb_10_1715,habits_v_MRI,59.98773888812012,
1.0,1.0,resp2,stim/down_resp_img.png,"[0, -0.25]",up,stim/gold_coin.png,silver,,,,,training,,,gold,val,,,,,0.0,0.0,0.0,0.0,2.0,1.0,5.0,1.0,,,,,,,,,training resp,,353.5066867795431,17.270214513588144,5.0,,up,0.0,5.0,40.0,1.0,5.0,30.0,15.0,5.0,15.0,30.0,30.0,60.0,RR,1.0,18.0,m,,right,2020_Feb_10_1715,habits_v_MRI,59.98773888812012,
1.0,1.0,resp2,stim/down_resp_img.png,"[0, -0.25]",up,stim/gold_coin.png,silver,,,,,training,,,gold,val,,,,,0.0,0.0,0.0,0.0,2.0,1.0,5.0,1.0,,,,,,,,,training resp,,354.1735108224493,17.936983719184354,5.0,,up,0.0,5.0,40.0,1.0,5.0,30.0,15.0,5.0,15.0,30.0,30.0,60.0,RR,1.0,18.0,m,,right,2020_Feb_10_1715,habits_v_MRI,59.98773888812012,
1.0,1.0,resp2,stim/down_resp_img.png,"[0, -0.25]",up,stim/gold_coin.png,silver,,,,,training,,,gold,val,,,,,0.0,0.0,0.0,0.0,2.0,1.0,5.0,1.0,,,,,,,,,training resp,,354.8736994100145,18.637177291959237,5.0,,up,0.0,5.0,40.0,1.0,5.0,30.0,15.0,5.0,15.0,30.0,30.0,60.0,RR,1.0,18.0,m,,right,2020_Feb_10_1715,habits_v_MRI,59.98773888812012,
1.0,1.0,resp2,stim/down_resp_img.png,"[0, -0.25]",up,stim/gold_coin.png,silver,,,,,training,,,gold,val,,,,,0.0,0.0,0.0,0.0,2.0,1.0,5.0,1.0,,,,,,,,,training resp,,355.6576131342081,19.420942339595054,5.0,,up,0.0,5.0,40.0,1.0,5.0,30.0,15.0,5.0,15.0,30.0,30.0,60.0,RR,1.0,18.0,m,,right,2020_Feb_10_1715,habits_v_MRI,59.98773888812012,
1.0,1.0,resp2,stim/down_resp_img.png,"[0, -0.25]",up,stim/gold_coin.png,silver,,,,,training,,,gold,val,,,,,0.0,0.0,0.0,0.0,2.0,1.0,5.0,1.0,,,,,,,,,training resp,,356.4080139304351,20.1713211422466,5.0,,up,0.0,5.0,40.0,1.0,5.0,30.0,15.0,5.0,15.0,30.0,30.0,60.0,RR,1.0,18.0,m,,right,2020_Feb_10_1715,habits_v_MRI,59.98773888812012,
1.0,1.0,resp2,stim/down_resp_img.png,"[0, -0.25]",up,stim/gold_coin.png,silver,,,,,training,,,gold,val,,,,,0.0,0.0,0.0,0.0,2.0,1.0,5.0,1.0,,,,,,,,,training resp,,357.1412708825301,20.904644954807736,5.0,,up,0.0,5.0,40.0,1.0,5.0,30.0,15.0,5.0,15.0,30.0,30.0,60.0,RR,1.0,18.0,m,,right,2020_Feb_10_1715,habits_v_MRI,59.98773888812012,
1.0,1.0,resp2,stim/down_resp_img.png,"[0, -0.25]",up,stim/gold_coin.png,silver,,,,,training,,,gold,val,,,,,0.0,0.0,0.0,0.0,2.0,1.0,5.0,1.0,,,,,,,,,training resp,,357.90826627003844,21.6716297854,5.0,,up,0.0,5.0,40.0,1.0,5.0,30.0,15.0,5.0,15.0,30.0,30.0,60.0,RR,1.0,18.0,m,,right,2020_Feb_10_1715,habits_v_MRI,59.98773888812012,
1.0,1.0,resp2,stim/down_resp_img.png,"[0, -0.25]",up,stim/gold_coin.png,silver,,,,,training,,,gold,val,,,,,0.0,0.0,0.0,0.0,2.0,1.0,5.0,1.0,,,,,,,,,training resp,,358.7244703727483,22.48813270746541,5.0,,up,0.0,5.0,40.0,1.0,5.0,30.0,15.0,5.0,15.0,30.0,30.0,60.0,RR,1.0,18.0,m,,right,2020_Feb_10_1715,habits_v_MRI,59.98773888812012,
1.0,1.0,resp2,stim/down_resp_img.png,"[0, -0.25]",up,stim/gold_coin.png,silver,,,,,training,,,gold,val,,,,,0.0,0.0,0.0,0.0,2.0,1.0,5.0,1.0,,,,,,,,,training resp,,359.4081508770869,23.171839604092384,5.0,,up,0.0,5.0,40.0,1.0,5.0,30.0,15.0,5.0,15.0,30.0,30.0,60.0,RR,1.0,18.0,m,,right,2020_Feb_10_1715,habits_v_MRI,59.98773888812012,
1.0,1.0,resp2,stim/down_resp_img.png,"[0, -0.25]",up,stim/gold_coin.png,silver,,,,,training,,,gold,val,,,,,0.0,0.0,0.0,0.0,2.0,1.0,5.0,1.0,,,,,,,,,training resp,,360.175439512248,23.93892061991573,5.0,,up,0.0,5.0,40.0,1.0,5.0,30.0,15.0,5.0,15.0,30.0,30.0,60.0,RR,1.0,18.0,m,,right,2020_Feb_10_1715,habits_v_MRI,59.98773888812012,
1.0,1.0,resp2,stim/down_resp_img.png,"[0, -0.25]",up,stim/gold_coin.png,silver,,,,,training,,,gold,val,,,,,0.0,0.0,0.0,0.0,2.0,1.0,5.0,1.0,,,,,,,,,training resp,,360.94257712486433,24.7060447431395,5.0,,up,0.0,5.0,40.0,1.0,5.0,30.0,15.0,5.0,15.0,30.0,30.0,60.0,RR,1.0,18.0,m,,right,2020_Feb_10_1715,habits_v_MRI,59.98773888812012,
1.0,1.0,resp2,stim/down_resp_img.png,"[0, -0.25]",up,stim/gold_coin.png,silver,,,,,training,,,gold,val,,,,,0.0,0.0,0.0,0.0,2.0,1.0,5.0,1.0,,,,,,,,,training resp,,361.6429967915756,25.4064585449014,5.0,19.0,up,1.0,5.0,40.0,1.0,5.0,30.0,15.0,5.0,15.0,30.0,30.0,60.0,RR,1.0,18.0,m,,right,2020_Feb_10_1715,habits_v_MRI,59.98773888812012,
1.0,1.0,resp2,stim/down_resp_img.png,"[0, -0.25]",up,stim/gold_coin.png,silver,,,,,training,,,gold,val,,,,,0.0,0.0,0.0,0.0,2.0,1.0,5.0,1.0,,,,,,,,,training resp,,362.7602984909172,26.523514795957453,5.0,,up,0.0,5.0,40.0,1.0,5.0,30.0,15.0,5.0,15.0,30.0,30.0,60.0,RR,1.0,18.0,m,,right,2020_Feb_10_1715,habits_v_MRI,59.98773888812012,
1.0,1.0,resp2,stim/down_resp_img.png,"[0, -0.25]",up,stim/gold_coin.png,silver,,,,,training,,,gold,val,,,,,0.0,0.0,0.0,0.0,2.0,1.0,5.0,1.0,,,,,,,,,training resp,,363.7933586445142,27.556817465359927,5.0,,up,0.0,5.0,40.0,1.0,5.0,30.0,15.0,5.0,15.0,30.0,30.0,60.0,RR,1.0,18.0,m,,right,2020_Feb_10_1715,habits_v_MRI,59.98773888812012,
1.0,1.0,resp2,stim/down_resp_img.png,"[0, -0.25]",up,stim/gold_coin.png,silver,,,,,training,,,gold,val,,,,,0.0,0.0,0.0,0.0,2.0,1.0,5.0,1.0,,,,,,,,,training resp,,364.5269334770637,28.290385846459685,5.0,,up,0.0,5.0,40.0,1.0,5.0,30.0,15.0,5.0,15.0,30.0,30.0,60.0,RR,1.0,18.0,m,,right,2020_Feb_10_1715,habits_v_MRI,59.98773888812012,
1.0,1.0,resp2,stim/down_resp_img.png,"[0, -0.25]",up,stim/gold_coin.png,silver,,,,,training,,,gold,val,,,,,0.0,0.0,0.0,0.0,2.0,1.0,5.0,1.0,,,,,,,,,training resp,,365.26049628645706,29.02394161791381,5.0,,up,0.0,5.0,40.0,1.0,5.0,30.0,15.0,5.0,15.0,30.0,30.0,60.0,RR,1.0,18.0,m,,right,2020_Feb_10_1715,habits_v_MRI,59.98773888812012,
1.0,1.0,resp2,stim/down_resp_img.png,"[0, -0.25]",up,stim/gold_coin.png,silver,,,,,training,,,gold,val,,,,,0.0,0.0,0.0,0.0,2.0,1.0,5.0,1.0,,,,,,,,,training resp,,365.97737741001765,29.740843855302955,5.0,,up,0.0,5.0,40.0,1.0,5.0,30.0,15.0,5.0,15.0,30.0,30.0,60.0,RR,1.0,18.0,m,,right,2020_Feb_10_1715,habits_v_MRI,59.98773888812012,
1.0,1.0,resp2,stim/down_resp_img.png,"[0, -0.25]",up,stim/gold_coin.png,silver,,,,,training,,,gold,val,,,,,0.0,0.0,0.0,0.0,2.0,1.0,5.0,1.0,,,,,,,,,training resp,,366.6947379934864,30.457967201422434,5.0,,up,0.0,5.0,40.0,1.0,5.0,30.0,15.0,5.0,15.0,30.0,30.0,60.0,RR,1.0,18.0,m,,right,2020_Feb_10_1715,habits_v_MRI,59.98773888812012,
1.0,1.0,resp2,stim/down_resp_img.png,"[0, -0.25]",up,stim/gold_coin.png,silver,,,,,training,,,gold,val,,,,,0.0,0.0,0.0,0.0,2.0,1.0,5.0,1.0,,,,,,,,,training resp,,367.3280995470195,31.09134576332144,5.0,,up,0.0,5.0,40.0,1.0,5.0,30.0,15.0,5.0,15.0,30.0,30.0,60.0,RR,1.0,18.0,m,,right,2020_Feb_10_1715,habits_v_MRI,59.98773888812012,
1.0,1.0,resp2,stim/down_resp_img.png,"[0, -0.25]",up,stim/gold_coin.png,silver,,,,,training,,,gold,val,,,,,0.0,0.0,0.0,0.0,2.0,1.0,5.0,1.0,,,,,,,,,training resp,,367.96161740155,31.724624327765923,5.0,,up,0.0,5.0,40.0,1.0,5.0,30.0,15.0,5.0,15.0,30.0,30.0,60.0,RR,1.0,18.0,m,,right,2020_Feb_10_1715,habits_v_MRI,59.98773888812012,
1.0,1.0,resp2,stim/down_resp_img.png,"[0, -0.25]",up,stim/gold_coin.png,silver,,,,,training,,,gold,val,,,,,0.0,0.0,0.0,0.0,2.0,1.0,5.0,1.0,,,,,,,,,training resp,,368.6114322009962,32.374798062337504,5.0,,up,0.0,5.0,40.0,1.0,5.0,30.0,15.0,5.0,15.0,30.0,30.0,60.0,RR,1.0,18.0,m,,right,2020_Feb_10_1715,habits_v_MRI,59.98773888812012,
1.0,1.0,resp2,stim/down_resp_img.png,"[0, -0.25]",up,stim/gold_coin.png,silver,,,,,training,,,gold,val,,,,,0.0,0.0,0.0,0.0,2.0,1.0,5.0,1.0,,,,,,,,,training resp,,369.2952980378504,33.058877676729026,5.0,,up,0.0,5.0,40.0,1.0,5.0,30.0,15.0,5.0,15.0,30.0,30.0,60.0,RR,1.0,18.0,m,,right,2020_Feb_10_1715,habits_v_MRI,59.98773888812012,
1.0,1.0,resp2,stim/down_resp_img.png,"[0, -0.25]",up,stim/gold_coin.png,silver,,,,,training,,,gold,val,,,,,0.0,0.0,0.0,0.0,2.0,1.0,5.0,1.0,,,,,,,,,training resp,,369.9954414652748,33.758920813459554,5.0,,up,0.0,5.0,40.0,1.0,5.0,30.0,15.0,5.0,15.0,30.0,30.0,60.0,RR,1.0,18.0,m,,right,2020_Feb_10_1715,habits_v_MRI,59.98773888812012,
1.0,1.0,resp2,stim/down_resp_img.png,"[0, -0.25]",up,stim/gold_coin.png,silver,,,,,training,,,gold,val,,,,,0.0,0.0,0.0,0.0,2.0,1.0,5.0,1.0,,,,,,,,,training resp,,370.7619383317797,34.5253986188618,5.0,,up,0.0,5.0,40.0,1.0,5.0,30.0,15.0,5.0,15.0,30.0,30.0,60.0,RR,1.0,18.0,m,,right,2020_Feb_10_1715,habits_v_MRI,59.98773888812012,
1.0,1.0,resp2,stim/down_resp_img.png,"[0, -0.25]",up,stim/gold_coin.png,silver,,,,,training,,,gold,val,,,,,0.0,0.0,0.0,0.0,2.0,1.0,5.0,1.0,,,,,,,,,training resp,,371.4292488725369,35.19260329721874,5.0,,up,0.0,5.0,40.0,1.0,5.0,30.0,15.0,5.0,15.0,30.0,30.0,60.0,RR,1.0,18.0,m,,right,2020_Feb_10_1715,habits_v_MRI,59.98773888812012,
1.0,1.0,resp2,stim/down_resp_img.png,"[0, -0.25]",up,stim/gold_coin.png,silver,,,,,training,,,gold,val,,,,,0.0,0.0,0.0,0.0,2.0,1.0,5.0,1.0,,,,,,,,,training resp,,372.07929299164607,35.842662371956976,5.0,,up,0.0,5.0,40.0,1.0,5.0,30.0,15.0,5.0,15.0,30.0,30.0,60.0,RR,1.0,18.0,m,,right,2020_Feb_10_1715,habits_v_MRI,59.98773888812012,
1.0,1.0,resp2,stim/down_resp_img.png,"[0, -0.25]",up,stim/gold_coin.png,silver,,,,,training,,,gold,val,,,,,0.0,0.0,0.0,0.0,2.0,1.0,5.0,1.0,,,,,,,,,training resp,,372.7625623627792,36.526032327034045,5.0,,up,0.0,5.0,40.0,1.0,5.0,30.0,15.0,5.0,15.0,30.0,30.0,60.0,RR,1.0,18.0,m,,right,2020_Feb_10_1715,habits_v_MRI,59.98773888812012,
1.0,1.0,resp2,stim/down_resp_img.png,"[0, -0.25]",up,stim/gold_coin.png,silver,,,,,training,,,gold,val,,,,,0.0,0.0,0.0,0.0,2.0,1.0,5.0,1.0,,,,,,,,,training resp,,373.4460830471471,37.209542454489565,5.0,,up,0.0,5.0,40.0,1.0,5.0,30.0,15.0,5.0,15.0,30.0,30.0,60.0,RR,1.0,18.0,m,,right,2020_Feb_10_1715,habits_v_MRI,59.98773888812012,
1.0,1.0,resp2,stim/down_resp_img.png,"[0, -0.25]",up,stim/gold_coin.png,silver,,,,,training,,,gold,val,,,,,0.0,0.0,0.0,0.0,2.0,1.0,5.0,1.0,,,,,,,,,training resp,,374.0628447309391,37.826318507417454,5.0,,up,0.0,5.0,40.0,1.0,5.0,30.0,15.0,5.0,15.0,30.0,30.0,60.0,RR,1.0,18.0,m,,right,2020_Feb_10_1715,habits_v_MRI,59.98773888812012,
1.0,1.0,resp2,stim/down_resp_img.png,"[0, -0.25]",up,stim/gold_coin.png,silver,,,,,training,,,gold,val,,,,,0.0,0.0,0.0,0.0,2.0,1.0,5.0,1.0,,,,,,,,,training resp,,374.8135566629244,38.576896131977264,5.0,,up,0.0,5.0,40.0,1.0,5.0,30.0,15.0,5.0,15.0,30.0,30.0,60.0,RR,1.0,18.0,m,,right,2020_Feb_10_1715,habits_v_MRI,59.98773888812012,
1.0,1.0,resp2,stim/down_resp_img.png,"[0, -0.25]",up,stim/gold_coin.png,silver,,,,,training,,,gold,val,,,,,0.0,0.0,0.0,0.0,2.0,1.0,5.0,1.0,,,,,,,,,training resp,,375.4799898067104,39.24343983012659,5.0,12.0,up,1.0,5.0,40.0,1.0,5.0,30.0,15.0,5.0,15.0,30.0,30.0,60.0,RR,1.0,18.0,m,,right,2020_Feb_10_1715,habits_v_MRI,59.98773888812012,
1.0,1.0,resp2,stim/down_resp_img.png,"[0, -0.25]",up,stim/gold_coin.png,silver,,,,,training,,,gold,val,,,,,0.0,0.0,0.0,0.0,2.0,1.0,5.0,1.0,,,,,,,,,training resp,,376.5302911626604,40.29368136355697,5.0,,up,0.0,5.0,40.0,1.0,5.0,30.0,15.0,5.0,15.0,30.0,30.0,60.0,RR,1.0,18.0,m,,right,2020_Feb_10_1715,habits_v_MRI,59.98773888812012,
1.0,1.0,resp2,stim/down_resp_img.png,"[0, -0.25]",up,stim/gold_coin.png,silver,,,,,training,,,gold,val,,,,,0.0,0.0,0.0,0.0,2.0,1.0,5.0,1.0,,,,,,,,,training resp,,377.6806336612535,41.44408984286929,5.0,,up,0.0,5.0,40.0,1.0,5.0,30.0,15.0,5.0,15.0,30.0,30.0,60.0,RR,1.0,18.0,m,,right,2020_Feb_10_1715,habits_v_MRI,59.98773888812012,
1.0,1.0,resp2,stim/down_resp_img.png,"[0, -0.25]",up,stim/gold_coin.png,silver,,,,,training,,,gold,val,,,,,0.0,0.0,0.0,0.0,2.0,1.0,5.0,1.0,,,,,,,,,training resp,,378.4474868236503,42.21094945671575,5.0,,up,0.0,5.0,40.0,1.0,5.0,30.0,15.0,5.0,15.0,30.0,30.0,60.0,RR,1.0,18.0,m,,right,2020_Feb_10_1715,habits_v_MRI,59.98773888812012,
1.0,1.0,resp2,stim/down_resp_img.png,"[0, -0.25]",up,stim/gold_coin.png,silver,,,,,training,,,gold,val,,,,,0.0,0.0,0.0,0.0,2.0,1.0,5.0,1.0,,,,,,,,,training resp,,379.1311025202558,42.894574537247536,5.0,,up,0.0,5.0,40.0,1.0,5.0,30.0,15.0,5.0,15.0,30.0,30.0,60.0,RR,1.0,18.0,m,,right,2020_Feb_10_1715,habits_v_MRI,59.98773888812012,
1.0,1.0,resp2,stim/down_resp_img.png,"[0, -0.25]",up,stim/gold_coin.png,silver,,,,,training,,,gold,val,,,,,0.0,0.0,0.0,0.0,2.0,1.0,5.0,1.0,,,,,,,,,training resp,,379.8479399499192,43.61140228973818,5.0,,up,0.0,5.0,40.0,1.0,5.0,30.0,15.0,5.0,15.0,30.0,30.0,60.0,RR,1.0,18.0,m,,right,2020_Feb_10_1715,habits_v_MRI,59.98773888812012,
1.0,1.0,resp2,stim/down_resp_img.png,"[0, -0.25]",up,stim/gold_coin.png,silver,,,,,training,,,gold,val,,,,,0.0,0.0,0.0,0.0,2.0,1.0,5.0,1.0,,,,,,,,,training resp,,380.5481754571047,44.31164219564016,5.0,,up,0.0,5.0,40.0,1.0,5.0,30.0,15.0,5.0,15.0,30.0,30.0,60.0,RR,1.0,18.0,m,,right,2020_Feb_10_1715,habits_v_MRI,59.98773888812012,
1.0,1.0,resp2,stim/down_resp_img.png,"[0, -0.25]",up,stim/gold_coin.png,silver,,,,,training,,,gold,val,,,,,0.0,0.0,0.0,0.0,2.0,1.0,5.0,1.0,,,,,,,,,ITI start,30.0,380.9162302897239,44.6784504324969,,,,,5.0,40.0,1.0,5.0,30.0,15.0,5.0,15.0,30.0,30.0,60.0,RR,1.0,18.0,m,,right,2020_Feb_10_1715,habits_v_MRI,59.98773888812012,
1.0,0.0,resp1,stim/up_resp_img.png,"[0, 0.25]",down,stim/silver_coin.png,silver,,,,,training,,,silver,deval,,,,,0.0,0.0,0.0,0.0,3.0,0.0,6.0,0.0,,,,,,,,,training period start,45.0,410.9458931692934,0.0,6.0,8.0,,,5.0,40.0,1.0,5.0,30.0,15.0,5.0,15.0,30.0,30.0,60.0,RR,1.0,18.0,m,,right,2020_Feb_10_1715,habits_v_MRI,59.98773888812012,
1.0,0.0,resp1,stim/up_resp_img.png,"[0, 0.25]",down,stim/silver_coin.png,silver,,,,,training,,,silver,deval,,,,,0.0,0.0,0.0,0.0,3.0,0.0,6.0,0.0,,,,,,,,,training resp,,412.241394427765,1.3153218671577631,6.0,,down,0.0,5.0,40.0,1.0,5.0,30.0,15.0,5.0,15.0,30.0,30.0,60.0,RR,1.0,18.0,m,,right,2020_Feb_10_1715,habits_v_MRI,59.98773888812012,
1.0,0.0,resp1,stim/up_resp_img.png,"[0, 0.25]",down,stim/silver_coin.png,silver,,,,,training,,,silver,deval,,,,,0.0,0.0,0.0,0.0,3.0,0.0,6.0,0.0,,,,,,,,,training resp,,413.1914244416621,2.265361558223958,6.0,,down,0.0,5.0,40.0,1.0,5.0,30.0,15.0,5.0,15.0,30.0,30.0,60.0,RR,1.0,18.0,m,,right,2020_Feb_10_1715,habits_v_MRI,59.98773888812012,
1.0,0.0,resp1,stim/up_resp_img.png,"[0, 0.25]",down,stim/silver_coin.png,silver,,,,,training,,,silver,deval,,,,,0.0,0.0,0.0,0.0,3.0,0.0,6.0,0.0,,,,,,,,,training resp,,414.075784870005,3.1494950128835626,6.0,,down,0.0,5.0,40.0,1.0,5.0,30.0,15.0,5.0,15.0,30.0,30.0,60.0,RR,1.0,18.0,m,,right,2020_Feb_10_1715,habits_v_MRI,59.98773888812012,
1.0,0.0,resp1,stim/up_resp_img.png,"[0, 0.25]",down,stim/silver_coin.png,silver,,,,,training,,,silver,deval,,,,,0.0,0.0,0.0,0.0,3.0,0.0,6.0,0.0,,,,,,,,,training resp,,414.7927492758972,3.8663386007465306,6.0,,down,0.0,5.0,40.0,1.0,5.0,30.0,15.0,5.0,15.0,30.0,30.0,60.0,RR,1.0,18.0,m,,right,2020_Feb_10_1715,habits_v_MRI,59.98773888812012,
1.0,0.0,resp1,stim/up_resp_img.png,"[0, 0.25]",down,stim/silver_coin.png,silver,,,,,training,,,silver,deval,,,,,0.0,0.0,0.0,0.0,3.0,0.0,6.0,0.0,,,,,,,,,training resp,,415.5430031550495,4.61677194746153,6.0,,down,0.0,5.0,40.0,1.0,5.0,30.0,15.0,5.0,15.0,30.0,30.0,60.0,RR,1.0,18.0,m,,right,2020_Feb_10_1715,habits_v_MRI,59.98773888812012,
1.0,0.0,resp1,stim/up_resp_img.png,"[0, 0.25]",down,stim/silver_coin.png,silver,,,,,training,,,silver,deval,,,,,0.0,0.0,0.0,0.0,3.0,0.0,6.0,0.0,,,,,,,,,training resp,,416.3760807275576,5.450180303319939,6.0,,down,0.0,5.0,40.0,1.0,5.0,30.0,15.0,5.0,15.0,30.0,30.0,60.0,RR,1.0,18.0,m,,right,2020_Feb_10_1715,habits_v_MRI,59.98773888812012,
1.0,0.0,resp1,stim/up_resp_img.png,"[0, 0.25]",down,stim/silver_coin.png,silver,,,,,training,,,silver,deval,,,,,0.0,0.0,0.0,0.0,3.0,0.0,6.0,0.0,,,,,,,,,training resp,,417.1097995447017,6.1836393030462204,6.0,,down,0.0,5.0,40.0,1.0,5.0,30.0,15.0,5.0,15.0,30.0,30.0,60.0,RR,1.0,18.0,m,,right,2020_Feb_10_1715,habits_v_MRI,59.98773888812012,
1.0,0.0,resp1,stim/up_resp_img.png,"[0, 0.25]",down,stim/silver_coin.png,silver,,,,,training,,,silver,deval,,,,,0.0,0.0,0.0,0.0,3.0,0.0,6.0,0.0,,,,,,,,,training resp,,417.8594681015456,6.933416361520358,6.0,8.0,down,1.0,5.0,40.0,1.0,5.0,30.0,15.0,5.0,15.0,30.0,30.0,60.0,RR,1.0,18.0,m,,right,2020_Feb_10_1715,habits_v_MRI,59.98773888812012,
1.0,0.0,resp1,stim/up_resp_img.png,"[0, 0.25]",down,stim/silver_coin.png,silver,,,,,training,,,silver,deval,,,,,0.0,0.0,0.0,0.0,3.0,0.0,6.0,0.0,,,,,,,,,training resp,,418.9764753802447,8.050422760476067,6.0,,down,0.0,5.0,40.0,1.0,5.0,30.0,15.0,5.0,15.0,30.0,30.0,60.0,RR,1.0,18.0,m,,right,2020_Feb_10_1715,habits_v_MRI,59.98773888812012,
1.0,0.0,resp1,stim/up_resp_img.png,"[0, 0.25]",down,stim/silver_coin.png,silver,,,,,training,,,silver,deval,,,,,0.0,0.0,0.0,0.0,3.0,0.0,6.0,0.0,,,,,,,,,training resp,,419.7106742437936,8.784504324965383,6.0,,down,0.0,5.0,40.0,1.0,5.0,30.0,15.0,5.0,15.0,30.0,30.0,60.0,RR,1.0,18.0,m,,right,2020_Feb_10_1715,habits_v_MRI,59.98773888812012,
1.0,0.0,resp1,stim/up_resp_img.png,"[0, 0.25]",down,stim/silver_coin.png,silver,,,,,training,,,silver,deval,,,,,0.0,0.0,0.0,0.0,3.0,0.0,6.0,0.0,,,,,,,,,training resp,,420.3440237741743,9.41787702190777,6.0,,down,0.0,5.0,40.0,1.0,5.0,30.0,15.0,5.0,15.0,30.0,30.0,60.0,RR,1.0,18.0,m,,right,2020_Feb_10_1715,habits_v_MRI,59.98773888812012,
1.0,0.0,resp1,stim/up_resp_img.png,"[0, 0.25]",down,stim/silver_coin.png,silver,,,,,training,,,silver,deval,,,,,0.0,0.0,0.0,0.0,3.0,0.0,6.0,0.0,,,,,,,,,training resp,,421.0440733623509,10.117924557351216,6.0,,down,0.0,5.0,40.0,1.0,5.0,30.0,15.0,5.0,15.0,30.0,30.0,60.0,RR,1.0,18.0,m,,right,2020_Feb_10_1715,habits_v_MRI,59.98773888812012,
1.0,0.0,resp1,stim/up_resp_img.png,"[0, 0.25]",down,stim/silver_coin.png,silver,,,,,training,,,silver,deval,,,,,0.0,0.0,0.0,0.0,3.0,0.0,6.0,0.0,,,,,,,,,training resp,,421.8446262514699,10.91845369341172,6.0,,down,0.0,5.0,40.0,1.0,5.0,30.0,15.0,5.0,15.0,30.0,30.0,60.0,RR,1.0,18.0,m,,right,2020_Feb_10_1715,habits_v_MRI,59.98773888812012,
1.0,0.0,resp1,stim/up_resp_img.png,"[0, 0.25]",down,stim/silver_coin.png,silver,,,,,training,,,silver,deval,,,,,0.0,0.0,0.0,0.0,3.0,0.0,6.0,0.0,,,,,,,,,training resp,,422.5944745691231,11.668426934564197,6.0,,down,0.0,5.0,40.0,1.0,5.0,30.0,15.0,5.0,15.0,30.0,30.0,60.0,RR,1.0,18.0,m,,right,2020_Feb_10_1715,habits_v_MRI,59.98773888812012,
1.0,0.0,resp1,stim/up_resp_img.png,"[0, 0.25]",down,stim/silver_coin.png,silver,,,,,training,,,silver,deval,,,,,0.0,0.0,0.0,0.0,3.0,0.0,6.0,0.0,,,,,,,,,training resp,,423.4611788496877,12.535115379756462,6.0,,down,0.0,5.0,40.0,1.0,5.0,30.0,15.0,5.0,15.0,30.0,30.0,60.0,RR,1.0,18.0,m,,right,2020_Feb_10_1715,habits_v_MRI,59.98773888812012,
1.0,0.0,resp1,stim/up_resp_img.png,"[0, 0.25]",down,stim/silver_coin.png,silver,,,,,training,,,silver,deval,,,,,0.0,0.0,0.0,0.0,3.0,0.0,6.0,0.0,,,,,,,,,training resp,,424.26141033938256,13.335366810289996,6.0,20.0,down,1.0,5.0,40.0,1.0,5.0,30.0,15.0,5.0,15.0,30.0,30.0,60.0,RR,1.0,18.0,m,,right,2020_Feb_10_1715,habits_v_MRI,59.98773888812012,
1.0,0.0,resp1,stim/up_resp_img.png,"[0, 0.25]",down,stim/silver_coin.png,silver,,,,,training,,,silver,deval,,,,,0.0,0.0,0.0,0.0,3.0,0.0,6.0,0.0,,,,,,,,,training resp,,425.3283772525429,14.40232492602081,6.0,,down,0.0,5.0,40.0,1.0,5.0,30.0,15.0,5.0,15.0,30.0,30.0,60.0,RR,1.0,18.0,m,,right,2020_Feb_10_1715,habits_v_MRI,59.98773888812012,
1.0,0.0,resp1,stim/up_resp_img.png,"[0, 0.25]",down,stim/silver_coin.png,silver,,,,,training,,,silver,deval,,,,,0.0,0.0,0.0,0.0,3.0,0.0,6.0,0.0,,,,,,,,,training resp,,426.128603757028,15.20254351281983,6.0,,down,0.0,5.0,40.0,1.0,5.0,30.0,15.0,5.0,15.0,30.0,30.0,60.0,RR,1.0,18.0,m,,right,2020_Feb_10_1715,habits_v_MRI,59.98773888812012,
1.0,0.0,resp1,stim/up_resp_img.png,"[0, 0.25]",down,stim/silver_coin.png,silver,,,,,training,,,silver,deval,,,,,0.0,0.0,0.0,0.0,3.0,0.0,6.0,0.0,,,,,,,,,training resp,,426.96219979138186,16.036146585116512,6.0,,down,0.0,5.0,40.0,1.0,5.0,30.0,15.0,5.0,15.0,30.0,30.0,60.0,RR,1.0,18.0,m,,right,2020_Feb_10_1715,habits_v_MRI,59.98773888812012,
1.0,0.0,resp1,stim/up_resp_img.png,"[0, 0.25]",down,stim/silver_coin.png,silver,,,,,training,,,silver,deval,,,,,0.0,0.0,0.0,0.0,3.0,0.0,6.0,0.0,,,,,,,,,training resp,,427.66246462333584,16.73646156241739,6.0,,down,0.0,5.0,40.0,1.0,5.0,30.0,15.0,5.0,15.0,30.0,30.0,60.0,RR,1.0,18.0,m,,right,2020_Feb_10_1715,habits_v_MRI,59.98773888812012,
1.0,0.0,resp1,stim/up_resp_img.png,"[0, 0.25]",down,stim/silver_coin.png,silver,,,,,training,,,silver,deval,,,,,0.0,0.0,0.0,0.0,3.0,0.0,6.0,0.0,,,,,,,,,training resp,,428.36259514786434,17.436540475362563,6.0,,down,0.0,5.0,40.0,1.0,5.0,30.0,15.0,5.0,15.0,30.0,30.0,60.0,RR,1.0,18.0,m,,right,2020_Feb_10_1715,habits_v_MRI,59.98773888812012,
1.0,0.0,resp1,stim/up_resp_img.png,"[0, 0.25]",down,stim/silver_coin.png,silver,,,,,training,,,silver,deval,,,,,0.0,0.0,0.0,0.0,3.0,0.0,6.0,0.0,,,,,,,,,training resp,,429.2961962554036,18.370140996405095,6.0,,down,0.0,5.0,40.0,1.0,5.0,30.0,15.0,5.0,15.0,30.0,30.0,60.0,RR,1.0,18.0,m,,right,2020_Feb_10_1715,habits_v_MRI,59.98773888812012,
1.0,0.0,resp1,stim/up_resp_img.png,"[0, 0.25]",down,stim/silver_coin.png,silver,,,,,training,,,silver,deval,,,,,0.0,0.0,0.0,0.0,3.0,0.0,6.0,0.0,,,,,,,,,training resp,,430.0467187494032,19.120516280083397,6.0,,down,0.0,5.0,40.0,1.0,5.0,30.0,15.0,5.0,15.0,30.0,30.0,60.0,RR,1.0,18.0,m,,right,2020_Feb_10_1715,habits_v_MRI,59.98773888812012,
