list,trial_num_python,condition,stimulus,position,corrResp,coin_img,devalued_coin,stimulus_choice1,stimulus_choice2,position1,position2,phase,corrResp1,corrResp2,outcome,cond_val,outcome_choice1,outcome_choice2,cond_val1,cond_val2,blockLoop.thisRepN,blockLoop.thisTrialN,blockLoop.thisN,blockLoop.thisIndex,trialLoop.thisRepN,trialLoop.thisTrialN,trialLoop.thisN,trialLoop.thisIndex,choice_trialLoop.thisRepN,choice_trialLoop.thisTrialN,choice_trialLoop.thisN,choice_trialLoop.thisIndex,contingency_trialLoop.thisRepN,contingency_trialLoop.thisTrialN,contingency_trialLoop.thisN,contingency_trialLoop.thisIndex,run,event,duration,globalClock_t,routineClock_t,trial,nResp_untilRnf,resp,selected_coin,wasRnf,participant,task_ordering,hand,date,expName,n_repeat_training,credits_per_rnf,cost_response,min_resp_bet_rnf,max_resp_bet_rnf,mean_resp_bet_rnf,sigma_resp_bet_rnf,min_ITI,max_ITI,min_trial_duration,max_trial_duration,schedule,frameRate,Unnamed: 65
21.0,0.0,resp1,stim/left_resp_img.png,"[0.5, 0]",left,stim/gold_coin.png,silver,,,,,training,,,gold,val,,,,,0.0,0.0,0.0,0.0,0.0,0.0,0.0,0.0,,,,,,,,,0.0,instr_before_block,6.0,0.0040831801015883,,,,,,,213.0,1.0,right,2023_Aug_02_1332,habits_v_MRI,5.0,40.0,1.0,5.0,30.0,15.0,5.0,15.0,30.0,30.0,60.0,RR,59.99111588361881,
21.0,0.0,resp1,stim/left_resp_img.png,"[0.5, 0]",left,stim/gold_coin.png,silver,,,,,training,,,gold,val,,,,,0.0,0.0,0.0,0.0,0.0,0.0,0.0,0.0,,,,,,,,,0.0,training_period_start,60.0,6.036958294454962,0.0,0.0,12.0,,,,213.0,1.0,right,2023_Aug_02_1332,habits_v_MRI,5.0,40.0,1.0,5.0,30.0,15.0,5.0,15.0,30.0,30.0,60.0,RR,59.99111588361881,
21.0,0.0,resp1,stim/left_resp_img.png,"[0.5, 0]",left,stim/gold_coin.png,silver,,,,,training,,,gold,val,,,,,0.0,0.0,0.0,0.0,0.0,0.0,0.0,0.0,,,,,,,,,0.0,training_resp,,8.34939695079811,2.3323302308563143,0.0,,left,gold,0.0,213.0,1.0,right,2023_Aug_02_1332,habits_v_MRI,5.0,40.0,1.0,5.0,30.0,15.0,5.0,15.0,30.0,30.0,60.0,RR,59.99111588361881,
21.0,0.0,resp1,stim/left_resp_img.png,"[0.5, 0]",left,stim/gold_coin.png,silver,,,,,training,,,gold,val,,,,,0.0,0.0,0.0,0.0,0.0,0.0,0.0,0.0,,,,,,,,,0.0,training_resp,,9.5491584232077,3.5322415528353304,0.0,,left,gold,0.0,213.0,1.0,right,2023_Aug_02_1332,habits_v_MRI,5.0,40.0,1.0,5.0,30.0,15.0,5.0,15.0,30.0,30.0,60.0,RR,59.99111588361881,
21.0,0.0,resp1,stim/left_resp_img.png,"[0.5, 0]",left,stim/gold_coin.png,silver,,,,,training,,,gold,val,,,,,0.0,0.0,0.0,0.0,0.0,0.0,0.0,0.0,,,,,,,,,0.0,training_resp,,10.63229618477635,4.615442069480196,0.0,,left,gold,0.0,213.0,1.0,right,2023_Aug_02_1332,habits_v_MRI,5.0,40.0,1.0,5.0,30.0,15.0,5.0,15.0,30.0,30.0,60.0,RR,59.99111588361881,
21.0,0.0,resp1,stim/left_resp_img.png,"[0.5, 0]",left,stim/gold_coin.png,silver,,,,,training,,,gold,val,,,,,0.0,0.0,0.0,0.0,0.0,0.0,0.0,0.0,,,,,,,,,0.0,training_resp,,11.66556014539674,5.648733888519928,0.0,,left,gold,0.0,213.0,1.0,right,2023_Aug_02_1332,habits_v_MRI,5.0,40.0,1.0,5.0,30.0,15.0,5.0,15.0,30.0,30.0,60.0,RR,59.99111588361881,
21.0,0.0,resp1,stim/left_resp_img.png,"[0.5, 0]",left,stim/gold_coin.png,silver,,,,,training,,,gold,val,,,,,0.0,0.0,0.0,0.0,0.0,0.0,0.0,0.0,,,,,,,,,0.0,training_resp,,12.849033177131789,6.832096365978941,0.0,,left,gold,0.0,213.0,1.0,right,2023_Aug_02_1332,habits_v_MRI,5.0,40.0,1.0,5.0,30.0,15.0,5.0,15.0,30.0,30.0,60.0,RR,59.99111588361881,
21.0,0.0,resp1,stim/left_resp_img.png,"[0.5, 0]",left,stim/gold_coin.png,silver,,,,,training,,,gold,val,,,,,0.0,0.0,0.0,0.0,0.0,0.0,0.0,0.0,,,,,,,,,0.0,training_resp,,14.19899228378199,8.182009139331058,0.0,,left,gold,0.0,213.0,1.0,right,2023_Aug_02_1332,habits_v_MRI,5.0,40.0,1.0,5.0,30.0,15.0,5.0,15.0,30.0,30.0,60.0,RR,59.99111588361881,
21.0,0.0,resp1,stim/left_resp_img.png,"[0.5, 0]",left,stim/gold_coin.png,silver,,,,,training,,,gold,val,,,,,0.0,0.0,0.0,0.0,0.0,0.0,0.0,0.0,,,,,,,,,0.0,training_resp,,15.032218532869592,9.015280548483132,0.0,,left,gold,0.0,213.0,1.0,right,2023_Aug_02_1332,habits_v_MRI,5.0,40.0,1.0,5.0,30.0,15.0,5.0,15.0,30.0,30.0,60.0,RR,59.99111588361881,
21.0,0.0,resp1,stim/left_resp_img.png,"[0.5, 0]",left,stim/gold_coin.png,silver,,,,,training,,,gold,val,,,,,0.0,0.0,0.0,0.0,0.0,0.0,0.0,0.0,,,,,,,,,0.0,training_resp,,15.91534262895584,9.898512853309512,0.0,,left,gold,0.0,213.0,1.0,right,2023_Aug_02_1332,habits_v_MRI,5.0,40.0,1.0,5.0,30.0,15.0,5.0,15.0,30.0,30.0,60.0,RR,59.99111588361881,
21.0,0.0,resp1,stim/left_resp_img.png,"[0.5, 0]",left,stim/gold_coin.png,silver,,,,,training,,,gold,val,,,,,0.0,0.0,0.0,0.0,0.0,0.0,0.0,0.0,,,,,,,,,0.0,training_resp,,16.998581854393706,10.981753251515329,0.0,,left,gold,0.0,213.0,1.0,right,2023_Aug_02_1332,habits_v_MRI,5.0,40.0,1.0,5.0,30.0,15.0,5.0,15.0,30.0,30.0,60.0,RR,59.99111588361881,
21.0,0.0,resp1,stim/left_resp_img.png,"[0.5, 0]",left,stim/gold_coin.png,silver,,,,,training,,,gold,val,,,,,0.0,0.0,0.0,0.0,0.0,0.0,0.0,0.0,,,,,,,,,0.0,training_resp,,18.065266370074823,12.048380877124146,0.0,,left,gold,0.0,213.0,1.0,right,2023_Aug_02_1332,habits_v_MRI,5.0,40.0,1.0,5.0,30.0,15.0,5.0,15.0,30.0,30.0,60.0,RR,59.99111588361881,
21.0,0.0,resp1,stim/left_resp_img.png,"[0.5, 0]",left,stim/gold_coin.png,silver,,,,,training,,,gold,val,,,,,0.0,0.0,0.0,0.0,0.0,0.0,0.0,0.0,,,,,,,,,0.0,training_resp,,19.049079099670053,13.03169156680815,0.0,,left,gold,0.0,213.0,1.0,right,2023_Aug_02_1332,habits_v_MRI,5.0,40.0,1.0,5.0,30.0,15.0,5.0,15.0,30.0,30.0,60.0,RR,59.99111588361881,
21.0,0.0,resp1,stim/left_resp_img.png,"[0.5, 0]",left,stim/gold_coin.png,silver,,,,,training,,,gold,val,,,,,0.0,0.0,0.0,0.0,0.0,0.0,0.0,0.0,,,,,,,,,0.0,training_resp,,20.0652863108553,14.048297594767064,0.0,20.0,left,gold,1.0,213.0,1.0,right,2023_Aug_02_1332,habits_v_MRI,5.0,40.0,1.0,5.0,30.0,15.0,5.0,15.0,30.0,30.0,60.0,RR,59.99111588361881,
21.0,0.0,resp1,stim/left_resp_img.png,"[0.5, 0]",left,stim/gold_coin.png,silver,,,,,training,,,gold,val,,,,,0.0,0.0,0.0,0.0,0.0,0.0,0.0,0.0,,,,,,,,,0.0,training_resp,,21.448493542848155,15.43152652704157,0.0,,left,gold,0.0,213.0,1.0,right,2023_Aug_02_1332,habits_v_MRI,5.0,40.0,1.0,5.0,30.0,15.0,5.0,15.0,30.0,30.0,60.0,RR,59.99111588361881,
21.0,0.0,resp1,stim/left_resp_img.png,"[0.5, 0]",left,stim/gold_coin.png,silver,,,,,training,,,gold,val,,,,,0.0,0.0,0.0,0.0,0.0,0.0,0.0,0.0,,,,,,,,,0.0,training_resp,,22.365164290415123,16.348129534628242,0.0,,left,gold,0.0,213.0,1.0,right,2023_Aug_02_1332,habits_v_MRI,5.0,40.0,1.0,5.0,30.0,15.0,5.0,15.0,30.0,30.0,60.0,RR,59.99111588361881,
21.0,0.0,resp1,stim/left_resp_img.png,"[0.5, 0]",left,stim/gold_coin.png,silver,,,,,training,,,gold,val,,,,,0.0,0.0,0.0,0.0,0.0,0.0,0.0,0.0,,,,,,,,,0.0,training_resp,,23.48187157674693,17.464705739170313,0.0,,left,gold,0.0,213.0,1.0,right,2023_Aug_02_1332,habits_v_MRI,5.0,40.0,1.0,5.0,30.0,15.0,5.0,15.0,30.0,30.0,60.0,RR,59.99111588361881,
21.0,0.0,resp1,stim/left_resp_img.png,"[0.5, 0]",left,stim/gold_coin.png,silver,,,,,training,,,gold,val,,,,,0.0,0.0,0.0,0.0,0.0,0.0,0.0,0.0,,,,,,,,,0.0,training_resp,,24.19830520451069,18.18137191212736,0.0,,left,gold,0.0,213.0,1.0,right,2023_Aug_02_1332,habits_v_MRI,5.0,40.0,1.0,5.0,30.0,15.0,5.0,15.0,30.0,30.0,60.0,RR,59.99111588361881,
21.0,0.0,resp1,stim/left_resp_img.png,"[0.5, 0]",left,stim/gold_coin.png,silver,,,,,training,,,gold,val,,,,,0.0,0.0,0.0,0.0,0.0,0.0,0.0,0.0,,,,,,,,,0.0,training_resp,,25.0482621116098,19.031332924962044,0.0,,left,gold,0.0,213.0,1.0,right,2023_Aug_02_1332,habits_v_MRI,5.0,40.0,1.0,5.0,30.0,15.0,5.0,15.0,30.0,30.0,60.0,RR,59.99111588361881,
21.0,0.0,resp1,stim/left_resp_img.png,"[0.5, 0]",left,stim/gold_coin.png,silver,,,,,training,,,gold,val,,,,,0.0,0.0,0.0,0.0,0.0,0.0,0.0,0.0,,,,,,,,,0.0,training_resp,,26.4316441193223,20.4145401569549,0.0,,left,gold,0.0,213.0,1.0,right,2023_Aug_02_1332,habits_v_MRI,5.0,40.0,1.0,5.0,30.0,15.0,5.0,15.0,30.0,30.0,60.0,RR,59.99111588361881,
21.0,0.0,resp1,stim/left_resp_img.png,"[0.5, 0]",left,stim/gold_coin.png,silver,,,,,training,,,gold,val,,,,,0.0,0.0,0.0,0.0,0.0,0.0,0.0,0.0,,,,,,,,,0.0,training_resp,,27.381398480385545,21.364487181650475,0.0,,left,gold,0.0,213.0,1.0,right,2023_Aug_02_1332,habits_v_MRI,5.0,40.0,1.0,5.0,30.0,15.0,5.0,15.0,30.0,30.0,60.0,RR,59.99111588361881,
21.0,0.0,resp1,stim/left_resp_img.png,"[0.5, 0]",left,stim/gold_coin.png,silver,,,,,training,,,gold,val,,,,,0.0,0.0,0.0,0.0,0.0,0.0,0.0,0.0,,,,,,,,,0.0,training_resp,,28.264823448611423,22.24780951347202,0.0,,left,gold,0.0,213.0,1.0,right,2023_Aug_02_1332,habits_v_MRI,5.0,40.0,1.0,5.0,30.0,15.0,5.0,15.0,30.0,30.0,60.0,RR,59.99111588361881,
21.0,0.0,resp1,stim/left_resp_img.png,"[0.5, 0]",left,stim/gold_coin.png,silver,,,,,training,,,gold,val,,,,,0.0,0.0,0.0,0.0,0.0,0.0,0.0,0.0,,,,,,,,,0.0,training_resp,,29.131834759609774,23.114366290392358,0.0,,left,gold,0.0,213.0,1.0,right,2023_Aug_02_1332,habits_v_MRI,5.0,40.0,1.0,5.0,30.0,15.0,5.0,15.0,30.0,30.0,60.0,RR,59.99111588361881,
21.0,0.0,resp1,stim/left_resp_img.png,"[0.5, 0]",left,stim/gold_coin.png,silver,,,,,training,,,gold,val,,,,,0.0,0.0,0.0,0.0,0.0,0.0,0.0,0.0,,,,,,,,,0.0,training_resp,,29.94820278766565,23.931065981509164,0.0,,left,gold,0.0,213.0,1.0,right,2023_Aug_02_1332,habits_v_MRI,5.0,40.0,1.0,5.0,30.0,15.0,5.0,15.0,30.0,30.0,60.0,RR,59.99111588361881,
21.0,0.0,resp1,stim/left_resp_img.png,"[0.5, 0]",left,stim/gold_coin.png,silver,,,,,training,,,gold,val,,,,,0.0,0.0,0.0,0.0,0.0,0.0,0.0,0.0,,,,,,,,,0.0,training_resp,,30.8812948174309,24.86433894513175,0.0,,left,gold,0.0,213.0,1.0,right,2023_Aug_02_1332,habits_v_MRI,5.0,40.0,1.0,5.0,30.0,15.0,5.0,15.0,30.0,30.0,60.0,RR,59.99111588361881,
21.0,0.0,resp1,stim/left_resp_img.png,"[0.5, 0]",left,stim/gold_coin.png,silver,,,,,training,,,gold,val,,,,,0.0,0.0,0.0,0.0,0.0,0.0,0.0,0.0,,,,,,,,,0.0,training_resp,,33.664415306644514,27.64744389220141,0.0,,left,gold,0.0,213.0,1.0,right,2023_Aug_02_1332,habits_v_MRI,5.0,40.0,1.0,5.0,30.0,15.0,5.0,15.0,30.0,30.0,60.0,RR,59.99111588361881,
21.0,0.0,resp1,stim/left_resp_img.png,"[0.5, 0]",left,stim/gold_coin.png,silver,,,,,training,,,gold,val,,,,,0.0,0.0,0.0,0.0,0.0,0.0,0.0,0.0,,,,,,,,,0.0,training_resp,,35.53105448628776,29.514032046776265,0.0,,left,gold,0.0,213.0,1.0,right,2023_Aug_02_1332,habits_v_MRI,5.0,40.0,1.0,5.0,30.0,15.0,5.0,15.0,30.0,30.0,60.0,RR,59.99111588361881,
21.0,0.0,resp1,stim/left_resp_img.png,"[0.5, 0]",left,stim/gold_coin.png,silver,,,,,training,,,gold,val,,,,,0.0,0.0,0.0,0.0,0.0,0.0,0.0,0.0,,,,,,,,,0.0,training_resp,,38.14750650059432,32.13051602500491,0.0,,left,gold,0.0,213.0,1.0,right,2023_Aug_02_1332,habits_v_MRI,5.0,40.0,1.0,5.0,30.0,15.0,5.0,15.0,30.0,30.0,60.0,RR,59.99111588361881,
21.0,0.0,resp1,stim/left_resp_img.png,"[0.5, 0]",left,stim/gold_coin.png,silver,,,,,training,,,gold,val,,,,,0.0,0.0,0.0,0.0,0.0,0.0,0.0,0.0,,,,,,,,,0.0,training_resp,,40.3325319851283,34.31373070552945,0.0,,left,gold,0.0,213.0,1.0,right,2023_Aug_02_1332,habits_v_MRI,5.0,40.0,1.0,5.0,30.0,15.0,5.0,15.0,30.0,30.0,60.0,RR,59.99111588361881,
21.0,0.0,resp1,stim/left_resp_img.png,"[0.5, 0]",left,stim/gold_coin.png,silver,,,,,training,,,gold,val,,,,,0.0,0.0,0.0,0.0,0.0,0.0,0.0,0.0,,,,,,,,,0.0,training_resp,,41.51410887739621,35.49706444446929,0.0,,left,gold,0.0,213.0,1.0,right,2023_Aug_02_1332,habits_v_MRI,5.0,40.0,1.0,5.0,30.0,15.0,5.0,15.0,30.0,30.0,60.0,RR,59.99111588361881,
21.0,0.0,resp1,stim/left_resp_img.png,"[0.5, 0]",left,stim/gold_coin.png,silver,,,,,training,,,gold,val,,,,,0.0,0.0,0.0,0.0,0.0,0.0,0.0,0.0,,,,,,,,,0.0,training_resp,,42.84716636245139,36.83022309979424,0.0,,left,gold,0.0,213.0,1.0,right,2023_Aug_02_1332,habits_v_MRI,5.0,40.0,1.0,5.0,30.0,15.0,5.0,15.0,30.0,30.0,60.0,RR,59.99111588361881,
21.0,0.0,resp1,stim/left_resp_img.png,"[0.5, 0]",left,stim/gold_coin.png,silver,,,,,training,,,gold,val,,,,,0.0,0.0,0.0,0.0,0.0,0.0,0.0,0.0,,,,,,,,,0.0,training_resp,,44.01407647365704,37.99696400715038,0.0,,left,gold,0.0,213.0,1.0,right,2023_Aug_02_1332,habits_v_MRI,5.0,40.0,1.0,5.0,30.0,15.0,5.0,15.0,30.0,30.0,60.0,RR,59.99111588361881,
21.0,0.0,resp1,stim/left_resp_img.png,"[0.5, 0]",left,stim/gold_coin.png,silver,,,,,training,,,gold,val,,,,,0.0,0.0,0.0,0.0,0.0,0.0,0.0,0.0,,,,,,,,,0.0,training_resp,,45.197152154752985,39.180153468158096,0.0,,left,gold,0.0,213.0,1.0,right,2023_Aug_02_1332,habits_v_MRI,5.0,40.0,1.0,5.0,30.0,15.0,5.0,15.0,30.0,30.0,60.0,RR,59.99111588361881,
21.0,0.0,resp1,stim/left_resp_img.png,"[0.5, 0]",left,stim/gold_coin.png,silver,,,,,training,,,gold,val,,,,,0.0,0.0,0.0,0.0,0.0,0.0,0.0,0.0,,,,,,,,,0.0,training_resp,,46.44713668595068,40.43008228228428,0.0,15.0,left,gold,1.0,213.0,1.0,right,2023_Aug_02_1332,habits_v_MRI,5.0,40.0,1.0,5.0,30.0,15.0,5.0,15.0,30.0,30.0,60.0,RR,59.99111588361881,
21.0,0.0,resp1,stim/left_resp_img.png,"[0.5, 0]",left,stim/gold_coin.png,silver,,,,,training,,,gold,val,,,,,0.0,0.0,0.0,0.0,0.0,0.0,0.0,0.0,,,,,,,,,0.0,training_resp,,52.54680599062704,46.52968619274907,0.0,,left,gold,0.0,213.0,1.0,right,2023_Aug_02_1332,habits_v_MRI,5.0,40.0,1.0,5.0,30.0,15.0,5.0,15.0,30.0,30.0,60.0,RR,59.99111588361881,
21.0,0.0,resp1,stim/left_resp_img.png,"[0.5, 0]",left,stim/gold_coin.png,silver,,,,,training,,,gold,val,,,,,0.0,0.0,0.0,0.0,0.0,0.0,0.0,0.0,,,,,,,,,0.0,training_resp,,55.77985253743827,49.76283801556565,0.0,,left,gold,0.0,213.0,1.0,right,2023_Aug_02_1332,habits_v_MRI,5.0,40.0,1.0,5.0,30.0,15.0,5.0,15.0,30.0,30.0,60.0,RR,59.99111588361881,
21.0,0.0,resp1,stim/left_resp_img.png,"[0.5, 0]",left,stim/gold_coin.png,silver,,,,,training,,,gold,val,,,,,0.0,0.0,0.0,0.0,0.0,0.0,0.0,0.0,,,,,,,,,0.0,training_resp,,59.829587045591325,53.8125734035857,0.0,,left,gold,0.0,213.0,1.0,right,2023_Aug_02_1332,habits_v_MRI,5.0,40.0,1.0,5.0,30.0,15.0,5.0,15.0,30.0,30.0,60.0,RR,59.99111588361881,
21.0,0.0,resp1,stim/left_resp_img.png,"[0.5, 0]",left,stim/gold_coin.png,silver,,,,,training,,,gold,val,,,,,0.0,0.0,0.0,0.0,0.0,0.0,0.0,0.0,,,,,,,,,0.0,training_resp,,61.8961299227085,55.87914912425913,0.0,,left,gold,0.0,213.0,1.0,right,2023_Aug_02_1332,habits_v_MRI,5.0,40.0,1.0,5.0,30.0,15.0,5.0,15.0,30.0,30.0,60.0,RR,59.99111588361881,
21.0,0.0,resp1,stim/left_resp_img.png,"[0.5, 0]",left,stim/gold_coin.png,silver,,,,,training,,,gold,val,,,,,0.0,0.0,0.0,0.0,0.0,0.0,0.0,0.0,,,,,,,,,0.0,training_resp,,64.07928008865565,58.06233594636433,0.0,,left,gold,0.0,213.0,1.0,right,2023_Aug_02_1332,habits_v_MRI,5.0,40.0,1.0,5.0,30.0,15.0,5.0,15.0,30.0,30.0,60.0,RR,59.99111588361881,
21.0,0.0,resp1,stim/left_resp_img.png,"[0.5, 0]",left,stim/gold_coin.png,silver,,,,,training,,,gold,val,,,,,0.0,0.0,0.0,0.0,0.0,0.0,0.0,0.0,,,,,,,,,0.0,ITI_start,28.333333333333336,65.6967030458618,59.678972706664354,,,,,,213.0,1.0,right,2023_Aug_02_1332,habits_v_MRI,5.0,40.0,1.0,5.0,30.0,15.0,5.0,15.0,30.0,30.0,60.0,RR,59.99111588361881,
21.0,1.0,resp2,stim/right_resp_img.png,"[-0.5, 0]",right,stim/silver_coin.png,silver,,,,,training,,,silver,deval,,,,,0.0,0.0,0.0,0.0,0.0,1.0,1.0,1.0,,,,,,,,,0.0,training_period_start,37.5,94.06597925489768,0.0,1.0,15.0,,,,213.0,1.0,right,2023_Aug_02_1332,habits_v_MRI,5.0,40.0,1.0,5.0,30.0,15.0,5.0,15.0,30.0,30.0,60.0,RR,59.99111588361881,
21.0,1.0,resp2,stim/right_resp_img.png,"[-0.5, 0]",right,stim/silver_coin.png,silver,,,,,training,,,silver,deval,,,,,0.0,0.0,0.0,0.0,0.0,1.0,1.0,1.0,,,,,,,,,0.0,training_resp,,95.26093791727908,1.2147769250441345,1.0,,right,silver,0.0,213.0,1.0,right,2023_Aug_02_1332,habits_v_MRI,5.0,40.0,1.0,5.0,30.0,15.0,5.0,15.0,30.0,30.0,60.0,RR,59.99111588361881,
21.0,1.0,resp2,stim/right_resp_img.png,"[-0.5, 0]",right,stim/silver_coin.png,silver,,,,,training,,,silver,deval,,,,,0.0,0.0,0.0,0.0,0.0,1.0,1.0,1.0,,,,,,,,,0.0,training_resp,,99.2771779722534,5.231199086876586,1.0,,right,silver,0.0,213.0,1.0,right,2023_Aug_02_1332,habits_v_MRI,5.0,40.0,1.0,5.0,30.0,15.0,5.0,15.0,30.0,30.0,60.0,RR,59.99111588361881,
21.0,1.0,resp2,stim/right_resp_img.png,"[-0.5, 0]",right,stim/silver_coin.png,silver,,,,,training,,,silver,deval,,,,,0.0,0.0,0.0,0.0,0.0,1.0,1.0,1.0,,,,,,,,,0.0,training_resp,,101.9604584868066,7.9144209518563,1.0,,right,silver,0.0,213.0,1.0,right,2023_Aug_02_1332,habits_v_MRI,5.0,40.0,1.0,5.0,30.0,15.0,5.0,15.0,30.0,30.0,60.0,RR,59.99111588361881,
21.0,1.0,resp2,stim/right_resp_img.png,"[-0.5, 0]",right,stim/silver_coin.png,silver,,,,,training,,,silver,deval,,,,,0.0,0.0,0.0,0.0,0.0,1.0,1.0,1.0,,,,,,,,,0.0,training_resp,,102.8270114515908,8.781031686346978,1.0,,right,silver,0.0,213.0,1.0,right,2023_Aug_02_1332,habits_v_MRI,5.0,40.0,1.0,5.0,30.0,15.0,5.0,15.0,30.0,30.0,60.0,RR,59.99111588361881,
21.0,1.0,resp2,stim/right_resp_img.png,"[-0.5, 0]",right,stim/silver_coin.png,silver,,,,,training,,,silver,deval,,,,,0.0,0.0,0.0,0.0,0.0,1.0,1.0,1.0,,,,,,,,,0.0,training_resp,,105.19369153911248,11.147560458164662,1.0,,right,silver,0.0,213.0,1.0,right,2023_Aug_02_1332,habits_v_MRI,5.0,40.0,1.0,5.0,30.0,15.0,5.0,15.0,30.0,30.0,60.0,RR,59.99111588361881,
21.0,1.0,resp2,stim/right_resp_img.png,"[-0.5, 0]",right,stim/silver_coin.png,silver,,,,,training,,,silver,deval,,,,,0.0,0.0,0.0,0.0,0.0,1.0,1.0,1.0,,,,,,,,,0.0,training_resp,,107.67691528098658,13.630733468104154,1.0,,right,silver,0.0,213.0,1.0,right,2023_Aug_02_1332,habits_v_MRI,5.0,40.0,1.0,5.0,30.0,15.0,5.0,15.0,30.0,30.0,60.0,RR,59.99111588361881,
21.0,1.0,resp2,stim/right_resp_img.png,"[-0.5, 0]",right,stim/silver_coin.png,silver,,,,,training,,,silver,deval,,,,,0.0,0.0,0.0,0.0,0.0,1.0,1.0,1.0,,,,,,,,,0.0,training_resp,,109.54335593199356,15.497370008612052,1.0,,right,silver,0.0,213.0,1.0,right,2023_Aug_02_1332,habits_v_MRI,5.0,40.0,1.0,5.0,30.0,15.0,5.0,15.0,30.0,30.0,60.0,RR,59.99111588361881,
21.0,1.0,resp2,stim/right_resp_img.png,"[-0.5, 0]",right,stim/silver_coin.png,silver,,,,,training,,,silver,deval,,,,,0.0,0.0,0.0,0.0,0.0,1.0,1.0,1.0,,,,,,,,,0.0,training_resp,,112.05995301576333,18.013798768166453,1.0,,right,silver,0.0,213.0,1.0,right,2023_Aug_02_1332,habits_v_MRI,5.0,40.0,1.0,5.0,30.0,15.0,5.0,15.0,30.0,30.0,60.0,RR,59.99111588361881,
21.0,1.0,resp2,stim/right_resp_img.png,"[-0.5, 0]",right,stim/silver_coin.png,silver,,,,,training,,,silver,deval,,,,,0.0,0.0,0.0,0.0,0.0,1.0,1.0,1.0,,,,,,,,,0.0,training_resp,,114.34307394502684,20.29704256821424,1.0,,right,silver,0.0,213.0,1.0,right,2023_Aug_02_1332,habits_v_MRI,5.0,40.0,1.0,5.0,30.0,15.0,5.0,15.0,30.0,30.0,60.0,RR,59.99111588361881,
21.0,1.0,resp2,stim/right_resp_img.png,"[-0.5, 0]",right,stim/silver_coin.png,silver,,,,,training,,,silver,deval,,,,,0.0,0.0,0.0,0.0,0.0,1.0,1.0,1.0,,,,,,,,,0.0,training_resp,,116.19297308241948,22.146967218257487,1.0,,right,silver,0.0,213.0,1.0,right,2023_Aug_02_1332,habits_v_MRI,5.0,40.0,1.0,5.0,30.0,15.0,5.0,15.0,30.0,30.0,60.0,RR,59.99111588361881,
21.0,1.0,resp2,stim/right_resp_img.png,"[-0.5, 0]",right,stim/silver_coin.png,silver,,,,,training,,,silver,deval,,,,,0.0,0.0,0.0,0.0,0.0,1.0,1.0,1.0,,,,,,,,,0.0,training_resp,,118.40963969542643,24.36349483183585,1.0,,right,silver,0.0,213.0,1.0,right,2023_Aug_02_1332,habits_v_MRI,5.0,40.0,1.0,5.0,30.0,15.0,5.0,15.0,30.0,30.0,60.0,RR,59.99111588361881,
21.0,1.0,resp2,stim/right_resp_img.png,"[-0.5, 0]",right,stim/silver_coin.png,silver,,,,,training,,,silver,deval,,,,,0.0,0.0,0.0,0.0,0.0,1.0,1.0,1.0,,,,,,,,,0.0,training_resp,,120.6093134866096,26.563322871224955,1.0,,right,silver,0.0,213.0,1.0,right,2023_Aug_02_1332,habits_v_MRI,5.0,40.0,1.0,5.0,30.0,15.0,5.0,15.0,30.0,30.0,60.0,RR,59.99111588361881,
21.0,1.0,resp2,stim/right_resp_img.png,"[-0.5, 0]",right,stim/silver_coin.png,silver,,,,,training,,,silver,deval,,,,,0.0,0.0,0.0,0.0,0.0,1.0,1.0,1.0,,,,,,,,,0.0,training_resp,,122.59272857243197,28.546580483205616,1.0,,right,silver,0.0,213.0,1.0,right,2023_Aug_02_1332,habits_v_MRI,5.0,40.0,1.0,5.0,30.0,15.0,5.0,15.0,30.0,30.0,60.0,RR,59.99111588361881,
21.0,1.0,resp2,stim/right_resp_img.png,"[-0.5, 0]",right,stim/silver_coin.png,silver,,,,,training,,,silver,deval,,,,,0.0,0.0,0.0,0.0,0.0,1.0,1.0,1.0,,,,,,,,,0.0,training_resp,,124.62588637764566,30.579814239405096,1.0,,right,silver,0.0,213.0,1.0,right,2023_Aug_02_1332,habits_v_MRI,5.0,40.0,1.0,5.0,30.0,15.0,5.0,15.0,30.0,30.0,60.0,RR,59.99111588361881,
21.0,1.0,resp2,stim/right_resp_img.png,"[-0.5, 0]",right,stim/silver_coin.png,silver,,,,,training,,,silver,deval,,,,,0.0,0.0,0.0,0.0,0.0,1.0,1.0,1.0,,,,,,,,,0.0,training_resp,,126.19280622457154,32.14650681940839,1.0,16.0,right,silver,1.0,213.0,1.0,right,2023_Aug_02_1332,habits_v_MRI,5.0,40.0,1.0,5.0,30.0,15.0,5.0,15.0,30.0,30.0,60.0,RR,59.99111588361881,
21.0,1.0,resp2,stim/right_resp_img.png,"[-0.5, 0]",right,stim/silver_coin.png,silver,,,,,training,,,silver,deval,,,,,0.0,0.0,0.0,0.0,0.0,1.0,1.0,1.0,,,,,,,,,0.0,training_resp,,128.74219250120225,34.696203352184966,1.0,,right,silver,0.0,213.0,1.0,right,2023_Aug_02_1332,habits_v_MRI,5.0,40.0,1.0,5.0,30.0,15.0,5.0,15.0,30.0,30.0,60.0,RR,59.99111588361881,
21.0,1.0,resp2,stim/right_resp_img.png,"[-0.5, 0]",right,stim/silver_coin.png,silver,,,,,training,,,silver,deval,,,,,0.0,0.0,0.0,0.0,0.0,1.0,1.0,1.0,,,,,,,,,0.0,ITI_start,18.33333333333333,131.2261555204168,37.17939454340376,,,,,,213.0,1.0,right,2023_Aug_02_1332,habits_v_MRI,5.0,40.0,1.0,5.0,30.0,15.0,5.0,15.0,30.0,30.0,60.0,RR,59.99111588361881,
21.0,0.0,resp1,stim/left_resp_img.png,"[0.5, 0]",left,stim/gold_coin.png,silver,,,,,training,,,gold,val,,,,,0.0,0.0,0.0,0.0,1.0,0.0,2.0,0.0,,,,,,,,,0.0,training_period_start,45.0,149.59565958287567,0.0,2.0,14.0,,,,213.0,1.0,right,2023_Aug_02_1332,habits_v_MRI,5.0,40.0,1.0,5.0,30.0,15.0,5.0,15.0,30.0,30.0,60.0,RR,59.99111588361881,
21.0,0.0,resp1,stim/left_resp_img.png,"[0.5, 0]",left,stim/gold_coin.png,silver,,,,,training,,,gold,val,,,,,0.0,0.0,0.0,0.0,1.0,0.0,2.0,0.0,,,,,,,,,0.0,training_resp,,150.5078468672,0.931635468499735,2.0,,left,gold,0.0,213.0,1.0,right,2023_Aug_02_1332,habits_v_MRI,5.0,40.0,1.0,5.0,30.0,15.0,5.0,15.0,30.0,30.0,60.0,RR,59.99111588361881,
21.0,0.0,resp1,stim/left_resp_img.png,"[0.5, 0]",left,stim/gold_coin.png,silver,,,,,training,,,gold,val,,,,,0.0,0.0,0.0,0.0,1.0,0.0,2.0,0.0,,,,,,,,,0.0,training_resp,,154.0240117041394,4.447941944003105,2.0,,left,gold,0.0,213.0,1.0,right,2023_Aug_02_1332,habits_v_MRI,5.0,40.0,1.0,5.0,30.0,15.0,5.0,15.0,30.0,30.0,60.0,RR,59.99111588361881,
21.0,0.0,resp1,stim/left_resp_img.png,"[0.5, 0]",left,stim/gold_coin.png,silver,,,,,training,,,gold,val,,,,,0.0,0.0,0.0,0.0,1.0,0.0,2.0,0.0,,,,,,,,,0.0,training_resp,,160.5404803454876,10.964312054216862,2.0,,left,gold,0.0,213.0,1.0,right,2023_Aug_02_1332,habits_v_MRI,5.0,40.0,1.0,5.0,30.0,15.0,5.0,15.0,30.0,30.0,60.0,RR,59.99111588361881,
21.0,0.0,resp1,stim/left_resp_img.png,"[0.5, 0]",left,stim/gold_coin.png,silver,,,,,training,,,gold,val,,,,,0.0,0.0,0.0,0.0,1.0,0.0,2.0,0.0,,,,,,,,,0.0,training_resp,,162.47374832374044,12.897606131387874,2.0,,left,gold,0.0,213.0,1.0,right,2023_Aug_02_1332,habits_v_MRI,5.0,40.0,1.0,5.0,30.0,15.0,5.0,15.0,30.0,30.0,60.0,RR,59.99111588361881,
21.0,0.0,resp1,stim/left_resp_img.png,"[0.5, 0]",left,stim/gold_coin.png,silver,,,,,training,,,gold,val,,,,,0.0,0.0,0.0,0.0,1.0,0.0,2.0,0.0,,,,,,,,,0.0,training_resp,,164.25687379809096,14.680781751172615,2.0,,left,gold,0.0,213.0,1.0,right,2023_Aug_02_1332,habits_v_MRI,5.0,40.0,1.0,5.0,30.0,15.0,5.0,15.0,30.0,30.0,60.0,RR,59.99111588361881,
21.0,0.0,resp1,stim/left_resp_img.png,"[0.5, 0]",left,stim/gold_coin.png,silver,,,,,training,,,gold,val,,,,,0.0,0.0,0.0,0.0,1.0,0.0,2.0,0.0,,,,,,,,,0.0,training_resp,,167.65674864011817,18.08056509983726,2.0,,left,gold,0.0,213.0,1.0,right,2023_Aug_02_1332,habits_v_MRI,5.0,40.0,1.0,5.0,30.0,15.0,5.0,15.0,30.0,30.0,60.0,RR,59.99111588361881,
21.0,0.0,resp1,stim/left_resp_img.png,"[0.5, 0]",left,stim/gold_coin.png,silver,,,,,training,,,gold,val,,,,,0.0,0.0,0.0,0.0,1.0,0.0,2.0,0.0,,,,,,,,,0.0,training_resp,,169.72321263351478,20.147135542239997,2.0,,left,gold,0.0,213.0,1.0,right,2023_Aug_02_1332,habits_v_MRI,5.0,40.0,1.0,5.0,30.0,15.0,5.0,15.0,30.0,30.0,60.0,RR,59.99111588361881,
21.0,0.0,resp1,stim/left_resp_img.png,"[0.5, 0]",left,stim/gold_coin.png,silver,,,,,training,,,gold,val,,,,,0.0,0.0,0.0,0.0,1.0,0.0,2.0,0.0,,,,,,,,,0.0,training_resp,,172.65652899746783,23.08032551663928,2.0,,left,gold,0.0,213.0,1.0,right,2023_Aug_02_1332,habits_v_MRI,5.0,40.0,1.0,5.0,30.0,15.0,5.0,15.0,30.0,30.0,60.0,RR,59.99111588361881,
21.0,0.0,resp1,stim/left_resp_img.png,"[0.5, 0]",left,stim/gold_coin.png,silver,,,,,training,,,gold,val,,,,,0.0,0.0,0.0,0.0,1.0,0.0,2.0,0.0,,,,,,,,,0.0,training_resp,,173.35639647906646,23.78026777599007,2.0,,left,gold,0.0,213.0,1.0,right,2023_Aug_02_1332,habits_v_MRI,5.0,40.0,1.0,5.0,30.0,15.0,5.0,15.0,30.0,30.0,60.0,RR,59.99111588361881,
21.0,0.0,resp1,stim/left_resp_img.png,"[0.5, 0]",left,stim/gold_coin.png,silver,,,,,training,,,gold,val,,,,,0.0,0.0,0.0,0.0,1.0,0.0,2.0,0.0,,,,,,,,,0.0,training_resp,,174.1229220838286,24.546871677972376,2.0,,left,gold,0.0,213.0,1.0,right,2023_Aug_02_1332,habits_v_MRI,5.0,40.0,1.0,5.0,30.0,15.0,5.0,15.0,30.0,30.0,60.0,RR,59.99111588361881,
21.0,0.0,resp1,stim/left_resp_img.png,"[0.5, 0]",left,stim/gold_coin.png,silver,,,,,training,,,gold,val,,,,,0.0,0.0,0.0,0.0,1.0,0.0,2.0,0.0,,,,,,,,,0.0,training_resp,,175.8730319782626,26.29680005228147,2.0,,left,gold,0.0,213.0,1.0,right,2023_Aug_02_1332,habits_v_MRI,5.0,40.0,1.0,5.0,30.0,15.0,5.0,15.0,30.0,30.0,60.0,RR,59.99111588361881,
21.0,0.0,resp1,stim/left_resp_img.png,"[0.5, 0]",left,stim/gold_coin.png,silver,,,,,training,,,gold,val,,,,,0.0,0.0,0.0,0.0,1.0,0.0,2.0,0.0,,,,,,,,,0.0,training_resp,,177.58956032502465,28.01343015581369,2.0,,left,gold,0.0,213.0,1.0,right,2023_Aug_02_1332,habits_v_MRI,5.0,40.0,1.0,5.0,30.0,15.0,5.0,15.0,30.0,30.0,60.0,RR,59.99111588361881,
21.0,0.0,resp1,stim/left_resp_img.png,"[0.5, 0]",left,stim/gold_coin.png,silver,,,,,training,,,gold,val,,,,,0.0,0.0,0.0,0.0,1.0,0.0,2.0,0.0,,,,,,,,,0.0,training_resp,,179.45598836615682,29.87989837210625,2.0,,left,gold,0.0,213.0,1.0,right,2023_Aug_02_1332,habits_v_MRI,5.0,40.0,1.0,5.0,30.0,15.0,5.0,15.0,30.0,30.0,60.0,RR,59.99111588361881,
21.0,0.0,resp1,stim/left_resp_img.png,"[0.5, 0]",left,stim/gold_coin.png,silver,,,,,training,,,gold,val,,,,,0.0,0.0,0.0,0.0,1.0,0.0,2.0,0.0,,,,,,,,,0.0,training_resp,,181.35584370722063,31.779792421730235,2.0,16.0,left,gold,1.0,213.0,1.0,right,2023_Aug_02_1332,habits_v_MRI,5.0,40.0,1.0,5.0,30.0,15.0,5.0,15.0,30.0,30.0,60.0,RR,59.99111588361881,
21.0,0.0,resp1,stim/left_resp_img.png,"[0.5, 0]",left,stim/gold_coin.png,silver,,,,,training,,,gold,val,,,,,0.0,0.0,0.0,0.0,1.0,0.0,2.0,0.0,,,,,,,,,0.0,training_resp,,188.1388345810119,38.56271262280643,2.0,,left,gold,0.0,213.0,1.0,right,2023_Aug_02_1332,habits_v_MRI,5.0,40.0,1.0,5.0,30.0,15.0,5.0,15.0,30.0,30.0,60.0,RR,59.99111588361881,
21.0,0.0,resp1,stim/left_resp_img.png,"[0.5, 0]",left,stim/gold_coin.png,silver,,,,,training,,,gold,val,,,,,0.0,0.0,0.0,0.0,1.0,0.0,2.0,0.0,,,,,,,,,0.0,training_resp,,190.32204779516903,40.745958973886445,2.0,,left,gold,0.0,213.0,1.0,right,2023_Aug_02_1332,habits_v_MRI,5.0,40.0,1.0,5.0,30.0,15.0,5.0,15.0,30.0,30.0,60.0,RR,59.99111588361881,
21.0,0.0,resp1,stim/left_resp_img.png,"[0.5, 0]",left,stim/gold_coin.png,silver,,,,,training,,,gold,val,,,,,0.0,0.0,0.0,0.0,1.0,0.0,2.0,0.0,,,,,,,,,0.0,training_resp,,193.6886126364116,44.112463992787525,2.0,,left,gold,0.0,213.0,1.0,right,2023_Aug_02_1332,habits_v_MRI,5.0,40.0,1.0,5.0,30.0,15.0,5.0,15.0,30.0,30.0,60.0,RR,59.99111588361881,
21.0,0.0,resp1,stim/left_resp_img.png,"[0.5, 0]",left,stim/gold_coin.png,silver,,,,,training,,,gold,val,,,,,0.0,0.0,0.0,0.0,1.0,0.0,2.0,0.0,,,,,,,,,0.0,ITI_start,30.0,194.2558961105533,44.67907710256986,,,,,,213.0,1.0,right,2023_Aug_02_1332,habits_v_MRI,5.0,40.0,1.0,5.0,30.0,15.0,5.0,15.0,30.0,30.0,60.0,RR,59.99111588361881,
21.0,1.0,resp2,stim/right_resp_img.png,"[-0.5, 0]",right,stim/silver_coin.png,silver,,,,,training,,,silver,deval,,,,,0.0,0.0,0.0,0.0,1.0,1.0,3.0,1.0,,,,,,,,,0.0,training_period_start,52.5,224.29142042412423,0.0,3.0,15.0,,,,213.0,1.0,right,2023_Aug_02_1332,habits_v_MRI,5.0,40.0,1.0,5.0,30.0,15.0,5.0,15.0,30.0,30.0,60.0,RR,59.99111588361881,
21.0,1.0,resp2,stim/right_resp_img.png,"[-0.5, 0]",right,stim/silver_coin.png,silver,,,,,training,,,silver,deval,,,,,0.0,0.0,0.0,0.0,1.0,1.0,3.0,1.0,,,,,,,,,0.0,training_resp,,225.05307606514543,0.7812545546330512,3.0,,right,silver,0.0,213.0,1.0,right,2023_Aug_02_1332,habits_v_MRI,5.0,40.0,1.0,5.0,30.0,15.0,5.0,15.0,30.0,30.0,60.0,RR,59.99111588361881,
21.0,1.0,resp2,stim/right_resp_img.png,"[-0.5, 0]",right,stim/silver_coin.png,silver,,,,,training,,,silver,deval,,,,,0.0,0.0,0.0,0.0,1.0,1.0,3.0,1.0,,,,,,,,,0.0,training_resp,,228.2366297398694,3.9647313982713968,3.0,,right,silver,0.0,213.0,1.0,right,2023_Aug_02_1332,habits_v_MRI,5.0,40.0,1.0,5.0,30.0,15.0,5.0,15.0,30.0,30.0,60.0,RR,59.99111588361881,
21.0,1.0,resp2,stim/right_resp_img.png,"[-0.5, 0]",right,stim/silver_coin.png,silver,,,,,training,,,silver,deval,,,,,0.0,0.0,0.0,0.0,1.0,1.0,3.0,1.0,,,,,,,,,0.0,training_resp,,233.21960172848776,8.947679340839386,3.0,,right,silver,0.0,213.0,1.0,right,2023_Aug_02_1332,habits_v_MRI,5.0,40.0,1.0,5.0,30.0,15.0,5.0,15.0,30.0,30.0,60.0,RR,59.99111588361881,
21.0,1.0,resp2,stim/right_resp_img.png,"[-0.5, 0]",right,stim/silver_coin.png,silver,,,,,training,,,silver,deval,,,,,0.0,0.0,0.0,0.0,1.0,1.0,3.0,1.0,,,,,,,,,0.0,training_resp,,237.93606995954175,13.664083936950192,3.0,,right,silver,0.0,213.0,1.0,right,2023_Aug_02_1332,habits_v_MRI,5.0,40.0,1.0,5.0,30.0,15.0,5.0,15.0,30.0,30.0,60.0,RR,59.99111588361881,
21.0,1.0,resp2,stim/right_resp_img.png,"[-0.5, 0]",right,stim/silver_coin.png,silver,,,,,training,,,silver,deval,,,,,0.0,0.0,0.0,0.0,1.0,1.0,3.0,1.0,,,,,,,,,0.0,training_resp,,242.21922519849613,17.94720369298011,3.0,,right,silver,0.0,213.0,1.0,right,2023_Aug_02_1332,habits_v_MRI,5.0,40.0,1.0,5.0,30.0,15.0,5.0,15.0,30.0,30.0,60.0,RR,59.99111588361881,
21.0,1.0,resp2,stim/right_resp_img.png,"[-0.5, 0]",right,stim/silver_coin.png,silver,,,,,training,,,silver,deval,,,,,0.0,0.0,0.0,0.0,1.0,1.0,3.0,1.0,,,,,,,,,0.0,training_resp,,247.13558451738209,22.863647760357708,3.0,,right,silver,0.0,213.0,1.0,right,2023_Aug_02_1332,habits_v_MRI,5.0,40.0,1.0,5.0,30.0,15.0,5.0,15.0,30.0,30.0,60.0,RR,59.99111588361881,
21.0,1.0,resp2,stim/right_resp_img.png,"[-0.5, 0]",right,stim/silver_coin.png,silver,,,,,training,,,silver,deval,,,,,0.0,0.0,0.0,0.0,1.0,1.0,3.0,1.0,,,,,,,,,0.0,training_resp,,251.80184699082747,27.52992606931366,3.0,,right,silver,0.0,213.0,1.0,right,2023_Aug_02_1332,habits_v_MRI,5.0,40.0,1.0,5.0,30.0,15.0,5.0,15.0,30.0,30.0,60.0,RR,59.99111588361881,
21.0,1.0,resp2,stim/right_resp_img.png,"[-0.5, 0]",right,stim/silver_coin.png,silver,,,,,training,,,silver,deval,,,,,0.0,0.0,0.0,0.0,1.0,1.0,3.0,1.0,,,,,,,,,0.0,training_resp,,254.6519047752954,30.379813770065084,3.0,,right,silver,0.0,213.0,1.0,right,2023_Aug_02_1332,habits_v_MRI,5.0,40.0,1.0,5.0,30.0,15.0,5.0,15.0,30.0,30.0,60.0,RR,59.99111588361881,
21.0,1.0,resp2,stim/right_resp_img.png,"[-0.5, 0]",right,stim/silver_coin.png,silver,,,,,training,,,silver,deval,,,,,0.0,0.0,0.0,0.0,1.0,1.0,3.0,1.0,,,,,,,,,0.0,training_resp,,260.6182575400453,36.34621931938455,3.0,,right,silver,0.0,213.0,1.0,right,2023_Aug_02_1332,habits_v_MRI,5.0,40.0,1.0,5.0,30.0,15.0,5.0,15.0,30.0,30.0,60.0,RR,59.99111588361881,
21.0,1.0,resp2,stim/right_resp_img.png,"[-0.5, 0]",right,stim/silver_coin.png,silver,,,,,training,,,silver,deval,,,,,0.0,0.0,0.0,0.0,1.0,1.0,3.0,1.0,,,,,,,,,0.0,training_resp,,262.78461106703617,38.51265700859949,3.0,,right,silver,0.0,213.0,1.0,right,2023_Aug_02_1332,habits_v_MRI,5.0,40.0,1.0,5.0,30.0,15.0,5.0,15.0,30.0,30.0,60.0,RR,59.99111588361881,
21.0,1.0,resp2,stim/right_resp_img.png,"[-0.5, 0]",right,stim/silver_coin.png,silver,,,,,training,,,silver,deval,,,,,0.0,0.0,0.0,0.0,1.0,1.0,3.0,1.0,,,,,,,,,0.0,training_resp,,264.65139892324805,40.37928885687143,3.0,,right,silver,0.0,213.0,1.0,right,2023_Aug_02_1332,habits_v_MRI,5.0,40.0,1.0,5.0,30.0,15.0,5.0,15.0,30.0,30.0,60.0,RR,59.99111588361881,
21.0,1.0,resp2,stim/right_resp_img.png,"[-0.5, 0]",right,stim/silver_coin.png,silver,,,,,training,,,silver,deval,,,,,0.0,0.0,0.0,0.0,1.0,1.0,3.0,1.0,,,,,,,,,0.0,training_resp,,269.58428626600653,45.31229848391376,3.0,,right,silver,0.0,213.0,1.0,right,2023_Aug_02_1332,habits_v_MRI,5.0,40.0,1.0,5.0,30.0,15.0,5.0,15.0,30.0,30.0,60.0,RR,59.99111588361881,
21.0,1.0,resp2,stim/right_resp_img.png,"[-0.5, 0]",right,stim/silver_coin.png,silver,,,,,training,,,silver,deval,,,,,0.0,0.0,0.0,0.0,1.0,1.0,3.0,1.0,,,,,,,,,0.0,training_resp,,272.93412983301096,48.66214762255549,3.0,,right,silver,0.0,213.0,1.0,right,2023_Aug_02_1332,habits_v_MRI,5.0,40.0,1.0,5.0,30.0,15.0,5.0,15.0,30.0,30.0,60.0,RR,59.99111588361881,
21.0,1.0,resp2,stim/right_resp_img.png,"[-0.5, 0]",right,stim/silver_coin.png,silver,,,,,training,,,silver,deval,,,,,0.0,0.0,0.0,0.0,1.0,1.0,3.0,1.0,,,,,,,,,0.0,training_resp,,276.0673531203065,51.795288213994354,3.0,,right,silver,0.0,213.0,1.0,right,2023_Aug_02_1332,habits_v_MRI,5.0,40.0,1.0,5.0,30.0,15.0,5.0,15.0,30.0,30.0,60.0,RR,59.99111588361881,
21.0,1.0,resp2,stim/right_resp_img.png,"[-0.5, 0]",right,stim/silver_coin.png,silver,,,,,training,,,silver,deval,,,,,0.0,0.0,0.0,0.0,1.0,1.0,3.0,1.0,,,,,,,,,0.0,ITI_start,15.0,276.4512506572064,52.17853884678334,,,,,,213.0,1.0,right,2023_Aug_02_1332,habits_v_MRI,5.0,40.0,1.0,5.0,30.0,15.0,5.0,15.0,30.0,30.0,60.0,RR,59.99111588361881,
21.0,0.0,resp1,stim/left_resp_img.png,"[0.5, 0]",left,stim/gold_coin.png,silver,,,,,training,,,gold,val,,,,,0.0,0.0,0.0,0.0,2.0,0.0,4.0,0.0,,,,,,,,,0.0,training_period_start,52.5,291.4876726018265,0.0,4.0,12.0,,,,213.0,1.0,right,2023_Aug_02_1332,habits_v_MRI,5.0,40.0,1.0,5.0,30.0,15.0,5.0,15.0,30.0,30.0,60.0,RR,59.99111588361881,
21.0,0.0,resp1,stim/left_resp_img.png,"[0.5, 0]",left,stim/gold_coin.png,silver,,,,,training,,,gold,val,,,,,0.0,0.0,0.0,0.0,2.0,0.0,4.0,0.0,,,,,,,,,0.0,training_resp,,292.78294776636176,1.3148743712808937,4.0,,left,gold,0.0,213.0,1.0,right,2023_Aug_02_1332,habits_v_MRI,5.0,40.0,1.0,5.0,30.0,15.0,5.0,15.0,30.0,30.0,60.0,RR,59.99111588361881,
21.0,0.0,resp1,stim/left_resp_img.png,"[0.5, 0]",left,stim/gold_coin.png,silver,,,,,training,,,gold,val,,,,,0.0,0.0,0.0,0.0,2.0,0.0,4.0,0.0,,,,,,,,,0.0,training_resp,,296.2161613472272,4.748091764282435,4.0,,left,gold,0.0,213.0,1.0,right,2023_Aug_02_1332,habits_v_MRI,5.0,40.0,1.0,5.0,30.0,15.0,5.0,15.0,30.0,30.0,60.0,RR,59.99111588361881,
21.0,0.0,resp1,stim/left_resp_img.png,"[0.5, 0]",left,stim/gold_coin.png,silver,,,,,training,,,gold,val,,,,,0.0,0.0,0.0,0.0,2.0,0.0,4.0,0.0,,,,,,,,,0.0,training_resp,,303.7491849914659,12.28098755259998,4.0,,left,gold,0.0,213.0,1.0,right,2023_Aug_02_1332,habits_v_MRI,5.0,40.0,1.0,5.0,30.0,15.0,5.0,15.0,30.0,30.0,60.0,RR,59.99111588361881,
21.0,0.0,resp1,stim/left_resp_img.png,"[0.5, 0]",left,stim/gold_coin.png,silver,,,,,training,,,gold,val,,,,,0.0,0.0,0.0,0.0,2.0,0.0,4.0,0.0,,,,,,,,,0.0,training_resp,,306.4321555432398,14.964114405447615,4.0,,left,gold,0.0,213.0,1.0,right,2023_Aug_02_1332,habits_v_MRI,5.0,40.0,1.0,5.0,30.0,15.0,5.0,15.0,30.0,30.0,60.0,RR,59.99111588361881,
21.0,0.0,resp1,stim/left_resp_img.png,"[0.5, 0]",left,stim/gold_coin.png,silver,,,,,training,,,gold,val,,,,,0.0,0.0,0.0,0.0,2.0,0.0,4.0,0.0,,,,,,,,,0.0,training_resp,,309.8320863954723,18.363956403452903,4.0,,left,gold,0.0,213.0,1.0,right,2023_Aug_02_1332,habits_v_MRI,5.0,40.0,1.0,5.0,30.0,15.0,5.0,15.0,30.0,30.0,60.0,RR,59.99111588361881,
21.0,0.0,resp1,stim/left_resp_img.png,"[0.5, 0]",left,stim/gold_coin.png,silver,,,,,training,,,gold,val,,,,,0.0,0.0,0.0,0.0,2.0,0.0,4.0,0.0,,,,,,,,,0.0,training_resp,,314.01543772919104,22.547061409335583,4.0,,left,gold,0.0,213.0,1.0,right,2023_Aug_02_1332,habits_v_MRI,5.0,40.0,1.0,5.0,30.0,15.0,5.0,15.0,30.0,30.0,60.0,RR,59.99111588361881,
21.0,0.0,resp1,stim/left_resp_img.png,"[0.5, 0]",left,stim/gold_coin.png,silver,,,,,training,,,gold,val,,,,,0.0,0.0,0.0,0.0,2.0,0.0,4.0,0.0,,,,,,,,,0.0,training_resp,,315.01514125592075,23.546949682058766,4.0,,left,gold,0.0,213.0,1.0,right,2023_Aug_02_1332,habits_v_MRI,5.0,40.0,1.0,5.0,30.0,15.0,5.0,15.0,30.0,30.0,60.0,RR,59.99111588361881,
21.0,0.0,resp1,stim/left_resp_img.png,"[0.5, 0]",left,stim/gold_coin.png,silver,,,,,training,,,gold,val,,,,,0.0,0.0,0.0,0.0,2.0,0.0,4.0,0.0,,,,,,,,,0.0,training_resp,,315.8489944683388,24.380288244923577,4.0,,left,gold,0.0,213.0,1.0,right,2023_Aug_02_1332,habits_v_MRI,5.0,40.0,1.0,5.0,30.0,15.0,5.0,15.0,30.0,30.0,60.0,RR,59.99111588361881,
21.0,0.0,resp1,stim/left_resp_img.png,"[0.5, 0]",left,stim/gold_coin.png,silver,,,,,training,,,gold,val,,,,,0.0,0.0,0.0,0.0,2.0,0.0,4.0,0.0,,,,,,,,,0.0,training_resp,,317.44823431177065,25.980170300696045,4.0,,left,gold,0.0,213.0,1.0,right,2023_Aug_02_1332,habits_v_MRI,5.0,40.0,1.0,5.0,30.0,15.0,5.0,15.0,30.0,30.0,60.0,RR,59.99111588361881,
21.0,0.0,resp1,stim/left_resp_img.png,"[0.5, 0]",left,stim/gold_coin.png,silver,,,,,training,,,gold,val,,,,,0.0,0.0,0.0,0.0,2.0,0.0,4.0,0.0,,,,,,,,,0.0,training_resp,,321.91460335161537,30.44651060225442,4.0,,left,gold,0.0,213.0,1.0,right,2023_Aug_02_1332,habits_v_MRI,5.0,40.0,1.0,5.0,30.0,15.0,5.0,15.0,30.0,30.0,60.0,RR,59.99111588361881,
21.0,0.0,resp1,stim/left_resp_img.png,"[0.5, 0]",left,stim/gold_coin.png,silver,,,,,training,,,gold,val,,,,,0.0,0.0,0.0,0.0,2.0,0.0,4.0,0.0,,,,,,,,,0.0,training_resp,,324.0147541689221,32.54659925098531,4.0,,left,gold,0.0,213.0,1.0,right,2023_Aug_02_1332,habits_v_MRI,5.0,40.0,1.0,5.0,30.0,15.0,5.0,15.0,30.0,30.0,60.0,RR,59.99111588361881,
21.0,0.0,resp1,stim/left_resp_img.png,"[0.5, 0]",left,stim/gold_coin.png,silver,,,,,training,,,gold,val,,,,,0.0,0.0,0.0,0.0,2.0,0.0,4.0,0.0,,,,,,,,,0.0,training_resp,,326.03116753324866,34.563036368228495,4.0,11.0,left,gold,1.0,213.0,1.0,right,2023_Aug_02_1332,habits_v_MRI,5.0,40.0,1.0,5.0,30.0,15.0,5.0,15.0,30.0,30.0,60.0,RR,59.99111588361881,
21.0,0.0,resp1,stim/left_resp_img.png,"[0.5, 0]",left,stim/gold_coin.png,silver,,,,,training,,,gold,val,,,,,0.0,0.0,0.0,0.0,2.0,0.0,4.0,0.0,,,,,,,,,0.0,training_resp,,337.4138217000291,45.94566472945735,4.0,,left,gold,0.0,213.0,1.0,right,2023_Aug_02_1332,habits_v_MRI,5.0,40.0,1.0,5.0,30.0,15.0,5.0,15.0,30.0,30.0,60.0,RR,59.99111588361881,
21.0,0.0,resp1,stim/left_resp_img.png,"[0.5, 0]",left,stim/gold_coin.png,silver,,,,,training,,,gold,val,,,,,0.0,0.0,0.0,0.0,2.0,0.0,4.0,0.0,,,,,,,,,0.0,training_resp,,342.29691353905946,50.82878032140434,4.0,,left,gold,0.0,213.0,1.0,right,2023_Aug_02_1332,habits_v_MRI,5.0,40.0,1.0,5.0,30.0,15.0,5.0,15.0,30.0,30.0,60.0,RR,59.99111588361881,
21.0,0.0,resp1,stim/left_resp_img.png,"[0.5, 0]",left,stim/gold_coin.png,silver,,,,,training,,,gold,val,,,,,0.0,0.0,0.0,0.0,2.0,0.0,4.0,0.0,,,,,,,,,0.0,ITI_start,26.666666666666668,343.64741456741467,52.17866201070137,,,,,,213.0,1.0,right,2023_Aug_02_1332,habits_v_MRI,5.0,40.0,1.0,5.0,30.0,15.0,5.0,15.0,30.0,30.0,60.0,RR,59.99111588361881,
21.0,1.0,resp2,stim/right_resp_img.png,"[-0.5, 0]",right,stim/silver_coin.png,silver,,,,,training,,,silver,deval,,,,,0.0,0.0,0.0,0.0,2.0,1.0,5.0,1.0,,,,,,,,,0.0,training_period_start,45.0,370.3500385766383,0.0,5.0,16.0,,,,213.0,1.0,right,2023_Aug_02_1332,habits_v_MRI,5.0,40.0,1.0,5.0,30.0,15.0,5.0,15.0,30.0,30.0,60.0,RR,59.99111588361881,
21.0,1.0,resp2,stim/right_resp_img.png,"[-0.5, 0]",right,stim/silver_coin.png,silver,,,,,training,,,silver,deval,,,,,0.0,0.0,0.0,0.0,2.0,1.0,5.0,1.0,,,,,,,,,0.0,training_resp,,377.0450542757753,6.714591739233583,5.0,,right,silver,0.0,213.0,1.0,right,2023_Aug_02_1332,habits_v_MRI,5.0,40.0,1.0,5.0,30.0,15.0,5.0,15.0,30.0,30.0,60.0,RR,59.99111588361881,
21.0,1.0,resp2,stim/right_resp_img.png,"[-0.5, 0]",right,stim/silver_coin.png,silver,,,,,training,,,silver,deval,,,,,0.0,0.0,0.0,0.0,2.0,1.0,5.0,1.0,,,,,,,,,0.0,training_resp,,384.51112625561655,14.180866646580398,5.0,,right,silver,0.0,213.0,1.0,right,2023_Aug_02_1332,habits_v_MRI,5.0,40.0,1.0,5.0,30.0,15.0,5.0,15.0,30.0,30.0,60.0,RR,59.99111588361881,
21.0,1.0,resp2,stim/right_resp_img.png,"[-0.5, 0]",right,stim/silver_coin.png,silver,,,,,training,,,silver,deval,,,,,0.0,0.0,0.0,0.0,2.0,1.0,5.0,1.0,,,,,,,,,0.0,training_resp,,385.8610551578458,15.530810504220426,5.0,,right,silver,0.0,213.0,1.0,right,2023_Aug_02_1332,habits_v_MRI,5.0,40.0,1.0,5.0,30.0,15.0,5.0,15.0,30.0,30.0,60.0,RR,59.99111588361881,
21.0,1.0,resp2,stim/right_resp_img.png,"[-0.5, 0]",right,stim/silver_coin.png,silver,,,,,training,,,silver,deval,,,,,0.0,0.0,0.0,0.0,2.0,1.0,5.0,1.0,,,,,,,,,0.0,training_resp,,392.1274744602852,21.797135087661445,5.0,,right,silver,0.0,213.0,1.0,right,2023_Aug_02_1332,habits_v_MRI,5.0,40.0,1.0,5.0,30.0,15.0,5.0,15.0,30.0,30.0,60.0,RR,59.99111588361881,
21.0,1.0,resp2,stim/right_resp_img.png,"[-0.5, 0]",right,stim/silver_coin.png,silver,,,,,training,,,silver,deval,,,,,0.0,0.0,0.0,0.0,2.0,1.0,5.0,1.0,,,,,,,,,0.0,training_resp,,394.99391452479176,24.66352354059927,5.0,,right,silver,0.0,213.0,1.0,right,2023_Aug_02_1332,habits_v_MRI,5.0,40.0,1.0,5.0,30.0,15.0,5.0,15.0,30.0,30.0,60.0,RR,59.99111588361881,
21.0,1.0,resp2,stim/right_resp_img.png,"[-0.5, 0]",right,stim/silver_coin.png,silver,,,,,training,,,silver,deval,,,,,0.0,0.0,0.0,0.0,2.0,1.0,5.0,1.0,,,,,,,,,0.0,training_resp,,404.2100427348632,33.87976699718274,5.0,,right,silver,0.0,213.0,1.0,right,2023_Aug_02_1332,habits_v_MRI,5.0,40.0,1.0,5.0,30.0,15.0,5.0,15.0,30.0,30.0,60.0,RR,59.99111588361881,
21.0,1.0,resp2,stim/right_resp_img.png,"[-0.5, 0]",right,stim/silver_coin.png,silver,,,,,training,,,silver,deval,,,,,0.0,0.0,0.0,0.0,2.0,1.0,5.0,1.0,,,,,,,,,0.0,training_resp,,406.6432055837941,36.31294186925516,5.0,,right,silver,0.0,213.0,1.0,right,2023_Aug_02_1332,habits_v_MRI,5.0,40.0,1.0,5.0,30.0,15.0,5.0,15.0,30.0,30.0,60.0,RR,59.99111588361881,
21.0,1.0,resp2,stim/right_resp_img.png,"[-0.5, 0]",right,stim/silver_coin.png,silver,,,,,training,,,silver,deval,,,,,0.0,0.0,0.0,0.0,2.0,1.0,5.0,1.0,,,,,,,,,0.0,training_resp,,407.7599040728528,37.42948024487123,5.0,,right,silver,0.0,213.0,1.0,right,2023_Aug_02_1332,habits_v_MRI,5.0,40.0,1.0,5.0,30.0,15.0,5.0,15.0,30.0,30.0,60.0,RR,59.99111588361881,
21.0,1.0,resp2,stim/right_resp_img.png,"[-0.5, 0]",right,stim/silver_coin.png,silver,,,,,training,,,silver,deval,,,,,0.0,0.0,0.0,0.0,2.0,1.0,5.0,1.0,,,,,,,,,0.0,training_resp,,412.4596231707837,42.12927734688856,5.0,,right,silver,0.0,213.0,1.0,right,2023_Aug_02_1332,habits_v_MRI,5.0,40.0,1.0,5.0,30.0,15.0,5.0,15.0,30.0,30.0,60.0,RR,59.99111588361881,
21.0,1.0,resp2,stim/right_resp_img.png,"[-0.5, 0]",right,stim/silver_coin.png,silver,,,,,training,,,silver,deval,,,,,0.0,0.0,0.0,0.0,2.0,1.0,5.0,1.0,,,,,,,,,0.0,ITI_start,23.333333333333336,415.0102660136763,44.67912871437147,,,,,,213.0,1.0,right,2023_Aug_02_1332,habits_v_MRI,5.0,40.0,1.0,5.0,30.0,15.0,5.0,15.0,30.0,30.0,60.0,RR,59.99111588361881,
21.0,0.0,resp1,stim/left_resp_img.png,"[0.5, 0]",left,stim/gold_coin.png,silver,,,,,training,,,gold,val,,,,,0.0,0.0,0.0,0.0,3.0,0.0,6.0,0.0,,,,,,,,,0.0,training_period_start,37.5,438.37932551279664,0.0,6.0,13.0,,,,213.0,1.0,right,2023_Aug_02_1332,habits_v_MRI,5.0,40.0,1.0,5.0,30.0,15.0,5.0,15.0,30.0,30.0,60.0,RR,59.99111588361881,
21.0,0.0,resp1,stim/left_resp_img.png,"[0.5, 0]",left,stim/gold_coin.png,silver,,,,,training,,,gold,val,,,,,0.0,0.0,0.0,0.0,3.0,0.0,6.0,0.0,,,,,,,,,0.0,training_resp,,440.5912136551924,2.231426060199737,6.0,,left,gold,0.0,213.0,1.0,right,2023_Aug_02_1332,habits_v_MRI,5.0,40.0,1.0,5.0,30.0,15.0,5.0,15.0,30.0,30.0,60.0,RR,59.99111588361881,
21.0,0.0,resp1,stim/left_resp_img.png,"[0.5, 0]",left,stim/gold_coin.png,silver,,,,,training,,,gold,val,,,,,0.0,0.0,0.0,0.0,3.0,0.0,6.0,0.0,,,,,,,,,0.0,training_resp,,450.35750906053,11.997612964129075,6.0,,left,gold,0.0,213.0,1.0,right,2023_Aug_02_1332,habits_v_MRI,5.0,40.0,1.0,5.0,30.0,15.0,5.0,15.0,30.0,30.0,60.0,RR,59.99111588361881,
21.0,0.0,resp1,stim/left_resp_img.png,"[0.5, 0]",left,stim/gold_coin.png,silver,,,,,training,,,gold,val,,,,,0.0,0.0,0.0,0.0,3.0,0.0,6.0,0.0,,,,,,,,,0.0,training_resp,,457.45706399856135,19.09713505837135,6.0,,left,gold,0.0,213.0,1.0,right,2023_Aug_02_1332,habits_v_MRI,5.0,40.0,1.0,5.0,30.0,15.0,5.0,15.0,30.0,30.0,60.0,RR,59.99111588361881,
21.0,0.0,resp1,stim/left_resp_img.png,"[0.5, 0]",left,stim/gold_coin.png,silver,,,,,training,,,gold,val,,,,,0.0,0.0,0.0,0.0,3.0,0.0,6.0,0.0,,,,,,,,,0.0,training_resp,,463.4234205754474,25.06350541790016,6.0,,left,gold,0.0,213.0,1.0,right,2023_Aug_02_1332,habits_v_MRI,5.0,40.0,1.0,5.0,30.0,15.0,5.0,15.0,30.0,30.0,60.0,RR,59.99111588361881,
21.0,0.0,resp1,stim/left_resp_img.png,"[0.5, 0]",left,stim/gold_coin.png,silver,,,,,training,,,gold,val,,,,,0.0,0.0,0.0,0.0,3.0,0.0,6.0,0.0,,,,,,,,,0.0,training_resp,,467.9731056713499,29.613282007165253,6.0,,left,gold,0.0,213.0,1.0,right,2023_Aug_02_1332,habits_v_MRI,5.0,40.0,1.0,5.0,30.0,15.0,5.0,15.0,30.0,30.0,60.0,RR,59.99111588361881,
21.0,0.0,resp1,stim/left_resp_img.png,"[0.5, 0]",left,stim/gold_coin.png,silver,,,,,training,,,gold,val,,,,,0.0,0.0,0.0,0.0,3.0,0.0,6.0,0.0,,,,,,,,,0.0,training_resp,,471.70628461963497,33.3463855907321,6.0,,left,gold,0.0,213.0,1.0,right,2023_Aug_02_1332,habits_v_MRI,5.0,40.0,1.0,5.0,30.0,15.0,5.0,15.0,30.0,30.0,60.0,RR,59.99111588361881,
21.0,0.0,resp1,stim/left_resp_img.png,"[0.5, 0]",left,stim/gold_coin.png,silver,,,,,training,,,gold,val,,,,,0.0,0.0,0.0,0.0,3.0,0.0,6.0,0.0,,,,,,,,,0.0,training_resp,,472.5227459005546,34.16295537329279,6.0,,left,gold,0.0,213.0,1.0,right,2023_Aug_02_1332,habits_v_MRI,5.0,40.0,1.0,5.0,30.0,15.0,5.0,15.0,30.0,30.0,60.0,RR,59.99111588361881,
21.0,0.0,resp1,stim/left_resp_img.png,"[0.5, 0]",left,stim/gold_coin.png,silver,,,,,training,,,gold,val,,,,,0.0,0.0,0.0,0.0,3.0,0.0,6.0,0.0,,,,,,,,,0.0,training_resp,,473.5896849550773,35.22970821545459,6.0,,left,gold,0.0,213.0,1.0,right,2023_Aug_02_1332,habits_v_MRI,5.0,40.0,1.0,5.0,30.0,15.0,5.0,15.0,30.0,30.0,60.0,RR,59.99111588361881,
21.0,0.0,resp1,stim/left_resp_img.png,"[0.5, 0]",left,stim/gold_coin.png,silver,,,,,training,,,gold,val,,,,,0.0,0.0,0.0,0.0,3.0,0.0,6.0,0.0,,,,,,,,,0.0,ITI_start,25.0,475.5401340199169,37.17954380623996,,,,,,213.0,1.0,right,2023_Aug_02_1332,habits_v_MRI,5.0,40.0,1.0,5.0,30.0,15.0,5.0,15.0,30.0,30.0,60.0,RR,59.99111588361881,
21.0,1.0,resp2,stim/right_resp_img.png,"[-0.5, 0]",right,stim/silver_coin.png,silver,,,,,training,,,silver,deval,,,,,0.0,0.0,0.0,0.0,3.0,1.0,7.0,1.0,,,,,,,,,0.0,training_period_start,30.0,500.575676515,0.0,7.0,14.0,,,,213.0,1.0,right,2023_Aug_02_1332,habits_v_MRI,5.0,40.0,1.0,5.0,30.0,15.0,5.0,15.0,30.0,30.0,60.0,RR,59.99111588361881,
21.0,1.0,resp2,stim/right_resp_img.png,"[-0.5, 0]",right,stim/silver_coin.png,silver,,,,,training,,,silver,deval,,,,,0.0,0.0,0.0,0.0,3.0,1.0,7.0,1.0,,,,,,,,,0.0,training_resp,,502.2375722378493,1.6813559303991497,7.0,,right,silver,0.0,213.0,1.0,right,2023_Aug_02_1332,habits_v_MRI,5.0,40.0,1.0,5.0,30.0,15.0,5.0,15.0,30.0,30.0,60.0,RR,59.99111588361881,
21.0,1.0,resp2,stim/right_resp_img.png,"[-0.5, 0]",right,stim/silver_coin.png,silver,,,,,training,,,silver,deval,,,,,0.0,0.0,0.0,0.0,3.0,1.0,7.0,1.0,,,,,,,,,0.0,training_resp,,504.5045047237072,3.948150882963091,7.0,,right,silver,0.0,213.0,1.0,right,2023_Aug_02_1332,habits_v_MRI,5.0,40.0,1.0,5.0,30.0,15.0,5.0,15.0,30.0,30.0,60.0,RR,59.99111588361881,
21.0,1.0,resp2,stim/right_resp_img.png,"[-0.5, 0]",right,stim/silver_coin.png,silver,,,,,training,,,silver,deval,,,,,0.0,0.0,0.0,0.0,3.0,1.0,7.0,1.0,,,,,,,,,0.0,training_resp,,509.02070416370407,8.46448257775046,7.0,,right,silver,0.0,213.0,1.0,right,2023_Aug_02_1332,habits_v_MRI,5.0,40.0,1.0,5.0,30.0,15.0,5.0,15.0,30.0,30.0,60.0,RR,59.99111588361881,
21.0,1.0,resp2,stim/right_resp_img.png,"[-0.5, 0]",right,stim/silver_coin.png,silver,,,,,training,,,silver,deval,,,,,0.0,0.0,0.0,0.0,3.0,1.0,7.0,1.0,,,,,,,,,0.0,training_resp,,511.6538774522487,11.097658798797056,7.0,,right,silver,0.0,213.0,1.0,right,2023_Aug_02_1332,habits_v_MRI,5.0,40.0,1.0,5.0,30.0,15.0,5.0,15.0,30.0,30.0,60.0,RR,59.99111588361881,
21.0,1.0,resp2,stim/right_resp_img.png,"[-0.5, 0]",right,stim/silver_coin.png,silver,,,,,training,,,silver,deval,,,,,0.0,0.0,0.0,0.0,3.0,1.0,7.0,1.0,,,,,,,,,0.0,training_resp,,515.0539033168461,14.497648300603032,7.0,,right,silver,0.0,213.0,1.0,right,2023_Aug_02_1332,habits_v_MRI,5.0,40.0,1.0,5.0,30.0,15.0,5.0,15.0,30.0,30.0,60.0,RR,59.99111588361881,
21.0,1.0,resp2,stim/right_resp_img.png,"[-0.5, 0]",right,stim/silver_coin.png,silver,,,,,training,,,silver,deval,,,,,0.0,0.0,0.0,0.0,3.0,1.0,7.0,1.0,,,,,,,,,0.0,training_resp,,519.6203205371276,19.06388282775879,7.0,,right,silver,0.0,213.0,1.0,right,2023_Aug_02_1332,habits_v_MRI,5.0,40.0,1.0,5.0,30.0,15.0,5.0,15.0,30.0,30.0,60.0,RR,59.99111588361881,
21.0,1.0,resp2,stim/right_resp_img.png,"[-0.5, 0]",right,stim/silver_coin.png,silver,,,,,training,,,silver,deval,,,,,0.0,0.0,0.0,0.0,3.0,1.0,7.0,1.0,,,,,,,,,0.0,training_resp,,524.7533048277255,24.196979431901127,7.0,,right,silver,0.0,213.0,1.0,right,2023_Aug_02_1332,habits_v_MRI,5.0,40.0,1.0,5.0,30.0,15.0,5.0,15.0,30.0,30.0,60.0,RR,59.99111588361881,
21.0,1.0,resp2,stim/right_resp_img.png,"[-0.5, 0]",right,stim/silver_coin.png,silver,,,,,training,,,silver,deval,,,,,0.0,0.0,0.0,0.0,3.0,1.0,7.0,1.0,,,,,,,,,0.0,ITI_start,20.0,530.2370561219286,29.680054204072803,,,,,,213.0,1.0,right,2023_Aug_02_1332,habits_v_MRI,5.0,40.0,1.0,5.0,30.0,15.0,5.0,15.0,30.0,30.0,60.0,RR,59.99111588361881,
21.0,0.0,resp1,stim/left_resp_img.png,"[0.5, 0]",left,stim/gold_coin.png,silver,,,,,training,,,gold,val,,,,,0.0,0.0,0.0,0.0,4.0,0.0,8.0,0.0,,,,,,,,,0.0,training_period_start,30.0,550.2728906916454,0.0,8.0,12.0,,,,213.0,1.0,right,2023_Aug_02_1332,habits_v_MRI,5.0,40.0,1.0,5.0,30.0,15.0,5.0,15.0,30.0,30.0,60.0,RR,59.99111588361881,
21.0,0.0,resp1,stim/left_resp_img.png,"[0.5, 0]",left,stim/gold_coin.png,silver,,,,,training,,,gold,val,,,,,0.0,0.0,0.0,0.0,4.0,0.0,8.0,0.0,,,,,,,,,0.0,training_resp,,551.7851283559576,1.5314450920559466,8.0,,left,gold,0.0,213.0,1.0,right,2023_Aug_02_1332,habits_v_MRI,5.0,40.0,1.0,5.0,30.0,15.0,5.0,15.0,30.0,30.0,60.0,RR,59.99111588361881,
21.0,0.0,resp1,stim/left_resp_img.png,"[0.5, 0]",left,stim/gold_coin.png,silver,,,,,training,,,gold,val,,,,,0.0,0.0,0.0,0.0,4.0,0.0,8.0,0.0,,,,,,,,,0.0,training_resp,,553.9519789377227,3.6980552109889686,8.0,,left,gold,0.0,213.0,1.0,right,2023_Aug_02_1332,habits_v_MRI,5.0,40.0,1.0,5.0,30.0,15.0,5.0,15.0,30.0,30.0,60.0,RR,59.99111588361881,
21.0,0.0,resp1,stim/left_resp_img.png,"[0.5, 0]",left,stim/gold_coin.png,silver,,,,,training,,,gold,val,,,,,0.0,0.0,0.0,0.0,4.0,0.0,8.0,0.0,,,,,,,,,0.0,training_resp,,556.4014425438363,6.147932296153158,8.0,,left,gold,0.0,213.0,1.0,right,2023_Aug_02_1332,habits_v_MRI,5.0,40.0,1.0,5.0,30.0,15.0,5.0,15.0,30.0,30.0,60.0,RR,59.99111588361881,
21.0,0.0,resp1,stim/left_resp_img.png,"[0.5, 0]",left,stim/gold_coin.png,silver,,,,,training,,,gold,val,,,,,0.0,0.0,0.0,0.0,4.0,0.0,8.0,0.0,,,,,,,,,0.0,training_resp,,560.617950509768,10.364338505081832,8.0,,left,gold,0.0,213.0,1.0,right,2023_Aug_02_1332,habits_v_MRI,5.0,40.0,1.0,5.0,30.0,15.0,5.0,15.0,30.0,30.0,60.0,RR,59.99111588361881,
21.0,0.0,resp1,stim/left_resp_img.png,"[0.5, 0]",left,stim/gold_coin.png,silver,,,,,training,,,gold,val,,,,,0.0,0.0,0.0,0.0,4.0,0.0,8.0,0.0,,,,,,,,,0.0,training_resp,,564.2676723496988,14.014115768950433,8.0,,left,gold,0.0,213.0,1.0,right,2023_Aug_02_1332,habits_v_MRI,5.0,40.0,1.0,5.0,30.0,15.0,5.0,15.0,30.0,30.0,60.0,RR,59.99111588361881,
21.0,0.0,resp1,stim/left_resp_img.png,"[0.5, 0]",left,stim/gold_coin.png,silver,,,,,training,,,gold,val,,,,,0.0,0.0,0.0,0.0,4.0,0.0,8.0,0.0,,,,,,,,,0.0,training_resp,,575.5836821757257,25.33013233961537,8.0,,left,gold,0.0,213.0,1.0,right,2023_Aug_02_1332,habits_v_MRI,5.0,40.0,1.0,5.0,30.0,15.0,5.0,15.0,30.0,30.0,60.0,RR,59.99111588361881,
21.0,0.0,resp1,stim/left_resp_img.png,"[0.5, 0]",left,stim/gold_coin.png,silver,,,,,training,,,gold,val,,,,,0.0,0.0,0.0,0.0,4.0,0.0,8.0,0.0,,,,,,,,,0.0,training_resp,,579.0670416911598,28.813309748424217,8.0,,left,gold,0.0,213.0,1.0,right,2023_Aug_02_1332,habits_v_MRI,5.0,40.0,1.0,5.0,30.0,15.0,5.0,15.0,30.0,30.0,60.0,RR,59.99111588361881,
21.0,0.0,resp1,stim/left_resp_img.png,"[0.5, 0]",left,stim/gold_coin.png,silver,,,,,training,,,gold,val,,,,,0.0,0.0,0.0,0.0,4.0,0.0,8.0,0.0,,,,,,,,,0.0,ITI_start,16.666666666666668,579.9342424401548,29.67992781405337,,,,,,213.0,1.0,right,2023_Aug_02_1332,habits_v_MRI,5.0,40.0,1.0,5.0,30.0,15.0,5.0,15.0,30.0,30.0,60.0,RR,59.99111588361881,
21.0,1.0,resp2,stim/right_resp_img.png,"[-0.5, 0]",right,stim/silver_coin.png,silver,,,,,training,,,silver,deval,,,,,0.0,0.0,0.0,0.0,4.0,1.0,9.0,1.0,,,,,,,,,0.0,training_period_start,60.0,596.6376265473664,0.0,9.0,15.0,,,,213.0,1.0,right,2023_Aug_02_1332,habits_v_MRI,5.0,40.0,1.0,5.0,30.0,15.0,5.0,15.0,30.0,30.0,60.0,RR,59.99111588361881,
21.0,1.0,resp2,stim/right_resp_img.png,"[-0.5, 0]",right,stim/silver_coin.png,silver,,,,,training,,,silver,deval,,,,,0.0,0.0,0.0,0.0,4.0,1.0,9.0,1.0,,,,,,,,,0.0,training_resp,,597.9823623267002,1.3647965579293668,9.0,,right,silver,0.0,213.0,1.0,right,2023_Aug_02_1332,habits_v_MRI,5.0,40.0,1.0,5.0,30.0,15.0,5.0,15.0,30.0,30.0,60.0,RR,59.99111588361881,
21.0,1.0,resp2,stim/right_resp_img.png,"[-0.5, 0]",right,stim/silver_coin.png,silver,,,,,training,,,silver,deval,,,,,0.0,0.0,0.0,0.0,4.0,1.0,9.0,1.0,,,,,,,,,0.0,training_resp,,602.0989399976097,5.481235229410231,9.0,,right,silver,0.0,213.0,1.0,right,2023_Aug_02_1332,habits_v_MRI,5.0,40.0,1.0,5.0,30.0,15.0,5.0,15.0,30.0,30.0,60.0,RR,59.99111588361881,
21.0,1.0,resp2,stim/right_resp_img.png,"[-0.5, 0]",right,stim/silver_coin.png,silver,,,,,training,,,silver,deval,,,,,0.0,0.0,0.0,0.0,4.0,1.0,9.0,1.0,,,,,,,,,0.0,training_resp,,604.3653815870639,7.747764206724241,9.0,,right,silver,0.0,213.0,1.0,right,2023_Aug_02_1332,habits_v_MRI,5.0,40.0,1.0,5.0,30.0,15.0,5.0,15.0,30.0,30.0,60.0,RR,59.99111588361881,
21.0,1.0,resp2,stim/right_resp_img.png,"[-0.5, 0]",right,stim/silver_coin.png,silver,,,,,training,,,silver,deval,,,,,0.0,0.0,0.0,0.0,4.0,1.0,9.0,1.0,,,,,,,,,0.0,training_resp,,609.4651283088606,12.847481017466636,9.0,,right,silver,0.0,213.0,1.0,right,2023_Aug_02_1332,habits_v_MRI,5.0,40.0,1.0,5.0,30.0,15.0,5.0,15.0,30.0,30.0,60.0,RR,59.99111588361881,
21.0,1.0,resp2,stim/right_resp_img.png,"[-0.5, 0]",right,stim/silver_coin.png,silver,,,,,training,,,silver,deval,,,,,0.0,0.0,0.0,0.0,4.0,1.0,9.0,1.0,,,,,,,,,0.0,training_resp,,614.0315830651671,17.41390615561977,9.0,,right,silver,0.0,213.0,1.0,right,2023_Aug_02_1332,habits_v_MRI,5.0,40.0,1.0,5.0,30.0,15.0,5.0,15.0,30.0,30.0,60.0,RR,59.99111588361881,
21.0,1.0,resp2,stim/right_resp_img.png,"[-0.5, 0]",right,stim/silver_coin.png,silver,,,,,training,,,silver,deval,,,,,0.0,0.0,0.0,0.0,4.0,1.0,9.0,1.0,,,,,,,,,0.0,training_resp,,617.6813342298847,21.063738842960447,9.0,,right,silver,0.0,213.0,1.0,right,2023_Aug_02_1332,habits_v_MRI,5.0,40.0,1.0,5.0,30.0,15.0,5.0,15.0,30.0,30.0,60.0,RR,59.99111588361881,
21.0,1.0,resp2,stim/right_resp_img.png,"[-0.5, 0]",right,stim/silver_coin.png,silver,,,,,training,,,silver,deval,,,,,0.0,0.0,0.0,0.0,4.0,1.0,9.0,1.0,,,,,,,,,0.0,training_resp,,621.1478921212256,24.53017122438177,9.0,,right,silver,0.0,213.0,1.0,right,2023_Aug_02_1332,habits_v_MRI,5.0,40.0,1.0,5.0,30.0,15.0,5.0,15.0,30.0,30.0,60.0,RR,59.99111588361881,
21.0,1.0,resp2,stim/right_resp_img.png,"[-0.5, 0]",right,stim/silver_coin.png,silver,,,,,training,,,silver,deval,,,,,0.0,0.0,0.0,0.0,4.0,1.0,9.0,1.0,,,,,,,,,0.0,training_resp,,622.1311459208373,25.51352091599256,9.0,,right,silver,0.0,213.0,1.0,right,2023_Aug_02_1332,habits_v_MRI,5.0,40.0,1.0,5.0,30.0,15.0,5.0,15.0,30.0,30.0,60.0,RR,59.99111588361881,
21.0,1.0,resp2,stim/right_resp_img.png,"[-0.5, 0]",right,stim/silver_coin.png,silver,,,,,training,,,silver,deval,,,,,0.0,0.0,0.0,0.0,4.0,1.0,9.0,1.0,,,,,,,,,0.0,training_resp,,623.1976955425926,26.580101328901947,9.0,,right,silver,0.0,213.0,1.0,right,2023_Aug_02_1332,habits_v_MRI,5.0,40.0,1.0,5.0,30.0,15.0,5.0,15.0,30.0,30.0,60.0,RR,59.99111588361881,
21.0,1.0,resp2,stim/right_resp_img.png,"[-0.5, 0]",right,stim/silver_coin.png,silver,,,,,training,,,silver,deval,,,,,0.0,0.0,0.0,0.0,4.0,1.0,9.0,1.0,,,,,,,,,0.0,training_resp,,626.9308730245102,30.31323394388892,9.0,,right,silver,0.0,213.0,1.0,right,2023_Aug_02_1332,habits_v_MRI,5.0,40.0,1.0,5.0,30.0,15.0,5.0,15.0,30.0,30.0,60.0,RR,59.99111588361881,
21.0,1.0,resp2,stim/right_resp_img.png,"[-0.5, 0]",right,stim/silver_coin.png,silver,,,,,training,,,silver,deval,,,,,0.0,0.0,0.0,0.0,4.0,1.0,9.0,1.0,,,,,,,,,0.0,training_resp,,630.1140454774722,33.49636592855677,9.0,,right,silver,0.0,213.0,1.0,right,2023_Aug_02_1332,habits_v_MRI,5.0,40.0,1.0,5.0,30.0,15.0,5.0,15.0,30.0,30.0,60.0,RR,59.99111588361881,
21.0,1.0,resp2,stim/right_resp_img.png,"[-0.5, 0]",right,stim/silver_coin.png,silver,,,,,training,,,silver,deval,,,,,0.0,0.0,0.0,0.0,4.0,1.0,9.0,1.0,,,,,,,,,0.0,training_resp,,633.7803572167177,37.16279203444719,9.0,,right,silver,0.0,213.0,1.0,right,2023_Aug_02_1332,habits_v_MRI,5.0,40.0,1.0,5.0,30.0,15.0,5.0,15.0,30.0,30.0,60.0,RR,59.99111588361881,
21.0,1.0,resp2,stim/right_resp_img.png,"[-0.5, 0]",right,stim/silver_coin.png,silver,,,,,training,,,silver,deval,,,,,0.0,0.0,0.0,0.0,4.0,1.0,9.0,1.0,,,,,,,,,0.0,training_resp,,641.246752941981,44.62906459579244,9.0,,right,silver,0.0,213.0,1.0,right,2023_Aug_02_1332,habits_v_MRI,5.0,40.0,1.0,5.0,30.0,15.0,5.0,15.0,30.0,30.0,60.0,RR,59.99111588361881,
21.0,1.0,resp2,stim/right_resp_img.png,"[-0.5, 0]",right,stim/silver_coin.png,silver,,,,,training,,,silver,deval,,,,,0.0,0.0,0.0,0.0,4.0,1.0,9.0,1.0,,,,,,,,,0.0,training_resp,,642.7799337669276,46.16233456810005,9.0,,right,silver,0.0,213.0,1.0,right,2023_Aug_02_1332,habits_v_MRI,5.0,40.0,1.0,5.0,30.0,15.0,5.0,15.0,30.0,30.0,60.0,RR,59.99111588361881,
21.0,1.0,resp2,stim/right_resp_img.png,"[-0.5, 0]",right,stim/silver_coin.png,silver,,,,,training,,,silver,deval,,,,,0.0,0.0,0.0,0.0,4.0,1.0,9.0,1.0,,,,,,,,,0.0,training_resp,,650.5296205051709,53.91187878791243,9.0,13.0,right,silver,1.0,213.0,1.0,right,2023_Aug_02_1332,habits_v_MRI,5.0,40.0,1.0,5.0,30.0,15.0,5.0,15.0,30.0,30.0,60.0,RR,59.99111588361881,
21.0,1.0,resp2,stim/right_resp_img.png,"[-0.5, 0]",right,stim/silver_coin.png,silver,,,,,training,,,silver,deval,,,,,0.0,0.0,0.0,0.0,4.0,1.0,9.0,1.0,,,,,,,,,0.0,ITI_start,21.666666666666668,656.296642578207,59.67824017396197,,,,,,213.0,1.0,right,2023_Aug_02_1332,habits_v_MRI,5.0,40.0,1.0,5.0,30.0,15.0,5.0,15.0,30.0,30.0,60.0,RR,59.99111588361881,
21.0,2.0,resp1_vs_resp2,,,,,silver,,,,,consumption,right,left,,,gold,silver,val,val,0.0,0.0,0.0,0.0,,,,,,,,,,,,,0.0,piggy_getting_full_msg,7.0,677.976666577626,,,,,,,213.0,1.0,right,2023_Aug_02_1332,habits_v_MRI,5.0,40.0,1.0,5.0,30.0,15.0,5.0,15.0,30.0,30.0,60.0,RR,59.99111588361881,
21.0,2.0,resp1_vs_resp2,,,,,silver,,,,,consumption,right,left,,,gold,silver,val,val,0.0,0.0,0.0,0.0,,,,,,,,,,,,,0.0,instr_before_consumption,7.0,684.9927878673188,,,,,,,213.0,1.0,right,2023_Aug_02_1332,habits_v_MRI,5.0,40.0,1.0,5.0,30.0,15.0,5.0,15.0,30.0,30.0,60.0,RR,59.99111588361881,
21.0,2.0,resp1_vs_resp2,,,,,silver,,,,,consumption,right,left,,,gold,silver,val,val,0.0,0.0,0.0,0.0,,,,,,,,,,,,,0.0,consumption_start,15.0,692.0098460831214,0.0,,,,,,213.0,1.0,right,2023_Aug_02_1332,habits_v_MRI,5.0,40.0,1.0,5.0,30.0,15.0,5.0,15.0,30.0,30.0,60.0,RR,59.99111588361881,
21.0,2.0,resp1_vs_resp2,,,,,silver,,,,,consumption,right,left,,,gold,silver,val,val,0.0,0.0,0.0,0.0,,,,,,,,,,,,,0.0,consumption_resp,,692.7919061889406,0.7817307885270566,,,left,silver,,213.0,1.0,right,2023_Aug_02_1332,habits_v_MRI,5.0,40.0,1.0,5.0,30.0,15.0,5.0,15.0,30.0,30.0,60.0,RR,59.99111588361881,
21.0,2.0,resp1_vs_resp2,,,,,silver,,,,,consumption,right,left,,,gold,silver,val,val,0.0,0.0,0.0,0.0,,,,,,,,,,,,,0.0,consumption_resp,,693.1584290957544,1.1483410832006484,,,left,silver,,213.0,1.0,right,2023_Aug_02_1332,habits_v_MRI,5.0,40.0,1.0,5.0,30.0,15.0,5.0,15.0,30.0,30.0,60.0,RR,59.99111588361881,
21.0,2.0,resp1_vs_resp2,,,,,silver,,,,,consumption,right,left,,,gold,silver,val,val,0.0,0.0,0.0,0.0,,,,,,,,,,,,,0.0,consumption_resp,,693.5750897263642,1.5649993680417538,,,left,silver,,213.0,1.0,right,2023_Aug_02_1332,habits_v_MRI,5.0,40.0,1.0,5.0,30.0,15.0,5.0,15.0,30.0,30.0,60.0,RR,59.99111588361881,
21.0,2.0,resp1_vs_resp2,,,,,silver,,,,,consumption,right,left,,,gold,silver,val,val,0.0,0.0,0.0,0.0,,,,,,,,,,,,,0.0,consumption_resp,,694.6586245452054,2.6485347733832896,,,left,silver,,213.0,1.0,right,2023_Aug_02_1332,habits_v_MRI,5.0,40.0,1.0,5.0,30.0,15.0,5.0,15.0,30.0,30.0,60.0,RR,59.99111588361881,
21.0,2.0,resp1_vs_resp2,,,,,silver,,,,,consumption,right,left,,,gold,silver,val,val,0.0,0.0,0.0,0.0,,,,,,,,,,,,,0.0,consumption_resp,,695.0253058059607,3.015221312409267,,,left,silver,,213.0,1.0,right,2023_Aug_02_1332,habits_v_MRI,5.0,40.0,1.0,5.0,30.0,15.0,5.0,15.0,30.0,30.0,60.0,RR,59.99111588361881,
21.0,2.0,resp1_vs_resp2,,,,,silver,,,,,consumption,right,left,,,gold,silver,val,val,0.0,0.0,0.0,0.0,,,,,,,,,,,,,0.0,consumption_resp,,695.3919768028427,3.381890256656334,,,left,silver,,213.0,1.0,right,2023_Aug_02_1332,habits_v_MRI,5.0,40.0,1.0,5.0,30.0,15.0,5.0,15.0,30.0,30.0,60.0,RR,59.99111588361881,
21.0,2.0,resp1_vs_resp2,,,,,silver,,,,,consumption,right,left,,,gold,silver,val,val,0.0,0.0,0.0,0.0,,,,,,,,,,,,,0.0,consumption_resp,,695.8086142670363,3.798525374848396,,,left,silver,,213.0,1.0,right,2023_Aug_02_1332,habits_v_MRI,5.0,40.0,1.0,5.0,30.0,15.0,5.0,15.0,30.0,30.0,60.0,RR,59.99111588361881,
21.0,2.0,resp1_vs_resp2,,,,,silver,,,,,consumption,right,left,,,gold,silver,val,val,0.0,0.0,0.0,0.0,,,,,,,,,,,,,0.0,consumption_resp,,696.1252246643417,4.115145742427558,,,left,silver,,213.0,1.0,right,2023_Aug_02_1332,habits_v_MRI,5.0,40.0,1.0,5.0,30.0,15.0,5.0,15.0,30.0,30.0,60.0,RR,59.99111588361881,
21.0,2.0,resp1_vs_resp2,,,,,silver,,,,,consumption,right,left,,,gold,silver,val,val,0.0,0.0,0.0,0.0,,,,,,,,,,,,,0.0,consumption_resp,,696.5252088876441,4.515121168456972,,,right,gold,,213.0,1.0,right,2023_Aug_02_1332,habits_v_MRI,5.0,40.0,1.0,5.0,30.0,15.0,5.0,15.0,30.0,30.0,60.0,RR,59.99111588361881,
21.0,2.0,resp1_vs_resp2,,,,,silver,,,,,consumption,right,left,,,gold,silver,val,val,0.0,0.0,0.0,0.0,,,,,,,,,,,,,0.0,consumption_resp,,696.8918693275191,4.881781315198168,,,right,gold,,213.0,1.0,right,2023_Aug_02_1332,habits_v_MRI,5.0,40.0,1.0,5.0,30.0,15.0,5.0,15.0,30.0,30.0,60.0,RR,59.99111588361881,
21.0,2.0,resp1_vs_resp2,,,,,silver,,,,,consumption,right,left,,,gold,silver,val,val,0.0,0.0,0.0,0.0,,,,,,,,,,,,,0.0,instr_after_consumption,3.0,707.0072801660281,14.997908850898966,,,,,,213.0,1.0,right,2023_Aug_02_1332,habits_v_MRI,5.0,40.0,1.0,5.0,30.0,15.0,5.0,15.0,30.0,30.0,60.0,RR,59.99111588361881,
21.0,2.0,resp1_vs_resp2,,,,,silver,,,,,consumption,right,left,,,gold,silver,val,val,0.0,0.0,0.0,0.0,,,,,,,,,,,,,0.0,rest_after_block,3.0,710.0246858804021,,,,,,,213.0,1.0,right,2023_Aug_02_1332,habits_v_MRI,5.0,40.0,1.0,5.0,30.0,15.0,5.0,15.0,30.0,30.0,60.0,RR,59.99111588361881,
21.0,0.0,resp1,stim/left_resp_img.png,"[0.5, 0]",left,stim/gold_coin.png,silver,,,,,training,,,gold,val,,,,,0.0,1.0,1.0,1.0,0.0,0.0,0.0,0.0,,,,,,,,,1.0,instr_before_block,6.0,0.0044957797508686,,,,,,,213.0,1.0,right,2023_Aug_02_1332,habits_v_MRI,5.0,40.0,1.0,5.0,30.0,15.0,5.0,15.0,30.0,30.0,60.0,RR,59.99111588361881,
21.0,0.0,resp1,stim/left_resp_img.png,"[0.5, 0]",left,stim/gold_coin.png,silver,,,,,training,,,gold,val,,,,,0.0,1.0,1.0,1.0,0.0,0.0,0.0,0.0,,,,,,,,,1.0,training_period_start,45.0,6.0443815656472,0.0,10.0,10.0,,,,213.0,1.0,right,2023_Aug_02_1332,habits_v_MRI,5.0,40.0,1.0,5.0,30.0,15.0,5.0,15.0,30.0,30.0,60.0,RR,59.99111588361881,
21.0,0.0,resp1,stim/left_resp_img.png,"[0.5, 0]",left,stim/gold_coin.png,silver,,,,,training,,,gold,val,,,,,0.0,1.0,1.0,1.0,0.0,0.0,0.0,0.0,,,,,,,,,1.0,training_resp,,7.040644710883498,1.015212515136227,10.0,,left,gold,0.0,213.0,1.0,right,2023_Aug_02_1332,habits_v_MRI,5.0,40.0,1.0,5.0,30.0,15.0,5.0,15.0,30.0,30.0,60.0,RR,59.99111588361881,
21.0,0.0,resp1,stim/left_resp_img.png,"[0.5, 0]",left,stim/gold_coin.png,silver,,,,,training,,,gold,val,,,,,0.0,1.0,1.0,1.0,0.0,0.0,0.0,0.0,,,,,,,,,1.0,training_resp,,11.140279412269592,5.114977418445051,10.0,,left,gold,0.0,213.0,1.0,right,2023_Aug_02_1332,habits_v_MRI,5.0,40.0,1.0,5.0,30.0,15.0,5.0,15.0,30.0,30.0,60.0,RR,59.99111588361881,
21.0,0.0,resp1,stim/left_resp_img.png,"[0.5, 0]",left,stim/gold_coin.png,silver,,,,,training,,,gold,val,,,,,0.0,1.0,1.0,1.0,0.0,0.0,0.0,0.0,,,,,,,,,1.0,training_resp,,19.48978398484178,13.46453477581963,10.0,,left,gold,0.0,213.0,1.0,right,2023_Aug_02_1332,habits_v_MRI,5.0,40.0,1.0,5.0,30.0,15.0,5.0,15.0,30.0,30.0,60.0,RR,59.99111588361881,
21.0,0.0,resp1,stim/left_resp_img.png,"[0.5, 0]",left,stim/gold_coin.png,silver,,,,,training,,,gold,val,,,,,0.0,1.0,1.0,1.0,0.0,0.0,0.0,0.0,,,,,,,,,1.0,training_resp,,28.722578045679256,22.69733000965789,10.0,,left,gold,0.0,213.0,1.0,right,2023_Aug_02_1332,habits_v_MRI,5.0,40.0,1.0,5.0,30.0,15.0,5.0,15.0,30.0,30.0,60.0,RR,59.99111588361881,
21.0,0.0,resp1,stim/left_resp_img.png,"[0.5, 0]",left,stim/gold_coin.png,silver,,,,,training,,,gold,val,,,,,0.0,1.0,1.0,1.0,0.0,0.0,0.0,0.0,,,,,,,,,1.0,training_resp,,34.172237541060895,28.146991264540706,10.0,,left,gold,0.0,213.0,1.0,right,2023_Aug_02_1332,habits_v_MRI,5.0,40.0,1.0,5.0,30.0,15.0,5.0,15.0,30.0,30.0,60.0,RR,59.99111588361881,
21.0,0.0,resp1,stim/left_resp_img.png,"[0.5, 0]",left,stim/gold_coin.png,silver,,,,,training,,,gold,val,,,,,0.0,1.0,1.0,1.0,0.0,0.0,0.0,0.0,,,,,,,,,1.0,training_resp,,39.98851172998548,33.9632894997485,10.0,,left,gold,0.0,213.0,1.0,right,2023_Aug_02_1332,habits_v_MRI,5.0,40.0,1.0,5.0,30.0,15.0,5.0,15.0,30.0,30.0,60.0,RR,59.99111588361881,
21.0,0.0,resp1,stim/left_resp_img.png,"[0.5, 0]",left,stim/gold_coin.png,silver,,,,,training,,,gold,val,,,,,0.0,1.0,1.0,1.0,0.0,0.0,0.0,0.0,,,,,,,,,1.0,training_resp,,45.45505261304788,39.42971484316513,10.0,,left,gold,0.0,213.0,1.0,right,2023_Aug_02_1332,habits_v_MRI,5.0,40.0,1.0,5.0,30.0,15.0,5.0,15.0,30.0,30.0,60.0,RR,59.99111588361881,
21.0,0.0,resp1,stim/left_resp_img.png,"[0.5, 0]",left,stim/gold_coin.png,silver,,,,,training,,,gold,val,,,,,0.0,1.0,1.0,1.0,0.0,0.0,0.0,0.0,,,,,,,,,1.0,ITI_start,30.0,50.70526206516661,44.67933574714698,,,,,,213.0,1.0,right,2023_Aug_02_1332,habits_v_MRI,5.0,40.0,1.0,5.0,30.0,15.0,5.0,15.0,30.0,30.0,60.0,RR,59.99111588361881,
21.0,1.0,resp2,stim/right_resp_img.png,"[-0.5, 0]",right,stim/silver_coin.png,silver,,,,,training,,,silver,deval,,,,,0.0,1.0,1.0,1.0,0.0,1.0,1.0,1.0,,,,,,,,,1.0,training_period_start,52.5,80.74083711067215,0.0,11.0,12.0,,,,213.0,1.0,right,2023_Aug_02_1332,habits_v_MRI,5.0,40.0,1.0,5.0,30.0,15.0,5.0,15.0,30.0,30.0,60.0,RR,59.99111588361881,
21.0,1.0,resp2,stim/right_resp_img.png,"[-0.5, 0]",right,stim/silver_coin.png,silver,,,,,training,,,silver,deval,,,,,0.0,1.0,1.0,1.0,0.0,1.0,1.0,1.0,,,,,,,,,1.0,training_resp,,82.55275422590785,1.8314453561324624,11.0,,right,silver,0.0,213.0,1.0,right,2023_Aug_02_1332,habits_v_MRI,5.0,40.0,1.0,5.0,30.0,15.0,5.0,15.0,30.0,30.0,60.0,RR,59.99111588361881,
21.0,1.0,resp2,stim/right_resp_img.png,"[-0.5, 0]",right,stim/silver_coin.png,silver,,,,,training,,,silver,deval,,,,,0.0,1.0,1.0,1.0,0.0,1.0,1.0,1.0,,,,,,,,,1.0,training_resp,,88.31905315024778,7.597789147170259,11.0,,right,silver,0.0,213.0,1.0,right,2023_Aug_02_1332,habits_v_MRI,5.0,40.0,1.0,5.0,30.0,15.0,5.0,15.0,30.0,30.0,60.0,RR,59.99111588361881,
21.0,1.0,resp2,stim/right_resp_img.png,"[-0.5, 0]",right,stim/silver_coin.png,silver,,,,,training,,,silver,deval,,,,,0.0,1.0,1.0,1.0,0.0,1.0,1.0,1.0,,,,,,,,,1.0,training_resp,,93.7688014996238,13.047450988786297,11.0,,right,silver,0.0,213.0,1.0,right,2023_Aug_02_1332,habits_v_MRI,5.0,40.0,1.0,5.0,30.0,15.0,5.0,15.0,30.0,30.0,60.0,RR,59.99111588361881,
21.0,1.0,resp2,stim/right_resp_img.png,"[-0.5, 0]",right,stim/silver_coin.png,silver,,,,,training,,,silver,deval,,,,,0.0,1.0,1.0,1.0,0.0,1.0,1.0,1.0,,,,,,,,,1.0,training_resp,,103.93492951942608,23.21354616456665,11.0,,right,silver,0.0,213.0,1.0,right,2023_Aug_02_1332,habits_v_MRI,5.0,40.0,1.0,5.0,30.0,15.0,5.0,15.0,30.0,30.0,60.0,RR,59.99111588361881,
21.0,1.0,resp2,stim/right_resp_img.png,"[-0.5, 0]",right,stim/silver_coin.png,silver,,,,,training,,,silver,deval,,,,,0.0,1.0,1.0,1.0,0.0,1.0,1.0,1.0,,,,,,,,,1.0,training_resp,,113.61700566578656,32.89589239214547,11.0,,right,silver,0.0,213.0,1.0,right,2023_Aug_02_1332,habits_v_MRI,5.0,40.0,1.0,5.0,30.0,15.0,5.0,15.0,30.0,30.0,60.0,RR,59.99111588361881,
21.0,1.0,resp2,stim/right_resp_img.png,"[-0.5, 0]",right,stim/silver_coin.png,silver,,,,,training,,,silver,deval,,,,,0.0,1.0,1.0,1.0,0.0,1.0,1.0,1.0,,,,,,,,,1.0,training_resp,,119.03399326768704,38.31265800539404,11.0,,right,silver,0.0,213.0,1.0,right,2023_Aug_02_1332,habits_v_MRI,5.0,40.0,1.0,5.0,30.0,15.0,5.0,15.0,30.0,30.0,60.0,RR,59.99111588361881,
21.0,1.0,resp2,stim/right_resp_img.png,"[-0.5, 0]",right,stim/silver_coin.png,silver,,,,,training,,,silver,deval,,,,,0.0,1.0,1.0,1.0,0.0,1.0,1.0,1.0,,,,,,,,,1.0,training_resp,,132.46658252412453,51.745202688267455,11.0,,right,silver,0.0,213.0,1.0,right,2023_Aug_02_1332,habits_v_MRI,5.0,40.0,1.0,5.0,30.0,15.0,5.0,15.0,30.0,30.0,60.0,RR,59.99111588361881,
21.0,1.0,resp2,stim/right_resp_img.png,"[-0.5, 0]",right,stim/silver_coin.png,silver,,,,,training,,,silver,deval,,,,,0.0,1.0,1.0,1.0,0.0,1.0,1.0,1.0,,,,,,,,,1.0,ITI_start,23.333333333333336,132.90051954681985,52.17851861240342,,,,,,213.0,1.0,right,2023_Aug_02_1332,habits_v_MRI,5.0,40.0,1.0,5.0,30.0,15.0,5.0,15.0,30.0,30.0,60.0,RR,59.99111588361881,
21.0,0.0,resp1,stim/left_resp_img.png,"[0.5, 0]",left,stim/gold_coin.png,silver,,,,,training,,,gold,val,,,,,0.0,1.0,1.0,1.0,1.0,0.0,2.0,0.0,,,,,,,,,1.0,training_period_start,37.5,156.26954180351458,0.0,12.0,14.0,,,,213.0,1.0,right,2023_Aug_02_1332,habits_v_MRI,5.0,40.0,1.0,5.0,30.0,15.0,5.0,15.0,30.0,30.0,60.0,RR,59.99111588361881,
21.0,0.0,resp1,stim/left_resp_img.png,"[0.5, 0]",left,stim/gold_coin.png,silver,,,,,training,,,gold,val,,,,,0.0,1.0,1.0,1.0,1.0,0.0,2.0,0.0,,,,,,,,,1.0,training_resp,,157.26522079925053,1.0148902358487248,12.0,,left,gold,0.0,213.0,1.0,right,2023_Aug_02_1332,habits_v_MRI,5.0,40.0,1.0,5.0,30.0,15.0,5.0,15.0,30.0,30.0,60.0,RR,59.99111588361881,
21.0,0.0,resp1,stim/left_resp_img.png,"[0.5, 0]",left,stim/gold_coin.png,silver,,,,,training,,,gold,val,,,,,0.0,1.0,1.0,1.0,1.0,0.0,2.0,0.0,,,,,,,,,1.0,training_resp,,166.5146387759596,10.264263638993723,12.0,,left,gold,0.0,213.0,1.0,right,2023_Aug_02_1332,habits_v_MRI,5.0,40.0,1.0,5.0,30.0,15.0,5.0,15.0,30.0,30.0,60.0,RR,59.99111588361881,
21.0,0.0,resp1,stim/left_resp_img.png,"[0.5, 0]",left,stim/gold_coin.png,silver,,,,,training,,,gold,val,,,,,0.0,1.0,1.0,1.0,1.0,0.0,2.0,0.0,,,,,,,,,1.0,training_resp,,176.53080229321495,20.2804564810358,12.0,,left,gold,0.0,213.0,1.0,right,2023_Aug_02_1332,habits_v_MRI,5.0,40.0,1.0,5.0,30.0,15.0,5.0,15.0,30.0,30.0,60.0,RR,59.99111588361881,
21.0,0.0,resp1,stim/left_resp_img.png,"[0.5, 0]",left,stim/gold_coin.png,silver,,,,,training,,,gold,val,,,,,0.0,1.0,1.0,1.0,1.0,0.0,2.0,0.0,,,,,,,,,1.0,training_resp,,184.163710485911,27.91327816573903,12.0,,left,gold,0.0,213.0,1.0,right,2023_Aug_02_1332,habits_v_MRI,5.0,40.0,1.0,5.0,30.0,15.0,5.0,15.0,30.0,30.0,60.0,RR,59.99111588361881,
21.0,0.0,resp1,stim/left_resp_img.png,"[0.5, 0]",left,stim/gold_coin.png,silver,,,,,training,,,gold,val,,,,,0.0,1.0,1.0,1.0,1.0,0.0,2.0,0.0,,,,,,,,,1.0,training_resp,,189.69667372107503,33.44632908189669,12.0,,left,gold,0.0,213.0,1.0,right,2023_Aug_02_1332,habits_v_MRI,5.0,40.0,1.0,5.0,30.0,15.0,5.0,15.0,30.0,30.0,60.0,RR,59.99111588361881,
21.0,0.0,resp1,stim/left_resp_img.png,"[0.5, 0]",left,stim/gold_coin.png,silver,,,,,training,,,gold,val,,,,,0.0,1.0,1.0,1.0,1.0,0.0,2.0,0.0,,,,,,,,,1.0,training_resp,,191.5797934187576,35.32949130050838,12.0,,left,gold,0.0,213.0,1.0,right,2023_Aug_02_1332,habits_v_MRI,5.0,40.0,1.0,5.0,30.0,15.0,5.0,15.0,30.0,30.0,60.0,RR,59.99111588361881,
21.0,0.0,resp1,stim/left_resp_img.png,"[0.5, 0]",left,stim/gold_coin.png,silver,,,,,training,,,gold,val,,,,,0.0,1.0,1.0,1.0,1.0,0.0,2.0,0.0,,,,,,,,,1.0,ITI_start,28.333333333333336,193.43052684585564,37.17942181532271,,,,,,213.0,1.0,right,2023_Aug_02_1332,habits_v_MRI,5.0,40.0,1.0,5.0,30.0,15.0,5.0,15.0,30.0,30.0,60.0,RR,59.99111588361881,
21.0,1.0,resp2,stim/right_resp_img.png,"[-0.5, 0]",right,stim/silver_coin.png,silver,,,,,training,,,silver,deval,,,,,0.0,1.0,1.0,1.0,1.0,1.0,3.0,1.0,,,,,,,,,1.0,training_period_start,30.0,221.8001810510177,0.0,13.0,16.0,,,,213.0,1.0,right,2023_Aug_02_1332,habits_v_MRI,5.0,40.0,1.0,5.0,30.0,15.0,5.0,15.0,30.0,30.0,60.0,RR,59.99111588361881,
21.0,1.0,resp2,stim/right_resp_img.png,"[-0.5, 0]",right,stim/silver_coin.png,silver,,,,,training,,,silver,deval,,,,,0.0,1.0,1.0,1.0,1.0,1.0,3.0,1.0,,,,,,,,,1.0,training_resp,,228.46124277752824,6.681243029888719,13.0,,right,silver,0.0,213.0,1.0,right,2023_Aug_02_1332,habits_v_MRI,5.0,40.0,1.0,5.0,30.0,15.0,5.0,15.0,30.0,30.0,60.0,RR,59.99111588361881,
21.0,1.0,resp2,stim/right_resp_img.png,"[-0.5, 0]",right,stim/silver_coin.png,silver,,,,,training,,,silver,deval,,,,,0.0,1.0,1.0,1.0,1.0,1.0,3.0,1.0,,,,,,,,,1.0,training_resp,,234.04410561965776,12.26417947676964,13.0,,right,silver,0.0,213.0,1.0,right,2023_Aug_02_1332,habits_v_MRI,5.0,40.0,1.0,5.0,30.0,15.0,5.0,15.0,30.0,30.0,60.0,RR,59.99111588361881,
21.0,1.0,resp2,stim/right_resp_img.png,"[-0.5, 0]",right,stim/silver_coin.png,silver,,,,,training,,,silver,deval,,,,,0.0,1.0,1.0,1.0,1.0,1.0,3.0,1.0,,,,,,,,,1.0,training_resp,,240.3104173000902,18.530501421075314,13.0,,right,silver,0.0,213.0,1.0,right,2023_Aug_02_1332,habits_v_MRI,5.0,40.0,1.0,5.0,30.0,15.0,5.0,15.0,30.0,30.0,60.0,RR,59.99111588361881,
21.0,1.0,resp2,stim/right_resp_img.png,"[-0.5, 0]",right,stim/silver_coin.png,silver,,,,,training,,,silver,deval,,,,,0.0,1.0,1.0,1.0,1.0,1.0,3.0,1.0,,,,,,,,,1.0,ITI_start,16.666666666666668,251.4606598012615,29.679959191475064,,,,,,213.0,1.0,right,2023_Aug_02_1332,habits_v_MRI,5.0,40.0,1.0,5.0,30.0,15.0,5.0,15.0,30.0,30.0,60.0,RR,59.99111588361881,
21.0,0.0,resp1,stim/left_resp_img.png,"[0.5, 0]",left,stim/gold_coin.png,silver,,,,,training,,,gold,val,,,,,0.0,1.0,1.0,1.0,2.0,0.0,4.0,0.0,,,,,,,,,1.0,training_period_start,30.0,268.16347999335267,0.0,14.0,8.0,,,,213.0,1.0,right,2023_Aug_02_1332,habits_v_MRI,5.0,40.0,1.0,5.0,30.0,15.0,5.0,15.0,30.0,30.0,60.0,RR,59.99111588361881,
21.0,0.0,resp1,stim/left_resp_img.png,"[0.5, 0]",left,stim/gold_coin.png,silver,,,,,training,,,gold,val,,,,,0.0,1.0,1.0,1.0,2.0,0.0,4.0,0.0,,,,,,,,,1.0,training_resp,,273.59165821853094,5.4478114487137645,14.0,,left,gold,0.0,213.0,1.0,right,2023_Aug_02_1332,habits_v_MRI,5.0,40.0,1.0,5.0,30.0,15.0,5.0,15.0,30.0,30.0,60.0,RR,59.99111588361881,
21.0,0.0,resp1,stim/left_resp_img.png,"[0.5, 0]",left,stim/gold_coin.png,silver,,,,,training,,,gold,val,,,,,0.0,1.0,1.0,1.0,2.0,0.0,4.0,0.0,,,,,,,,,1.0,training_resp,,276.5082228106912,8.364315045299008,14.0,,left,gold,0.0,213.0,1.0,right,2023_Aug_02_1332,habits_v_MRI,5.0,40.0,1.0,5.0,30.0,15.0,5.0,15.0,30.0,30.0,60.0,RR,59.99111588361881,
21.0,0.0,resp1,stim/left_resp_img.png,"[0.5, 0]",left,stim/gold_coin.png,silver,,,,,training,,,gold,val,,,,,0.0,1.0,1.0,1.0,2.0,0.0,4.0,0.0,,,,,,,,,1.0,training_resp,,285.47451692586765,17.330583647824824,14.0,,left,gold,0.0,213.0,1.0,right,2023_Aug_02_1332,habits_v_MRI,5.0,40.0,1.0,5.0,30.0,15.0,5.0,15.0,30.0,30.0,60.0,RR,59.99111588361881,
21.0,0.0,resp1,stim/left_resp_img.png,"[0.5, 0]",left,stim/gold_coin.png,silver,,,,,training,,,gold,val,,,,,0.0,1.0,1.0,1.0,2.0,0.0,4.0,0.0,,,,,,,,,1.0,training_resp,,289.624365888536,21.480406218208373,14.0,,left,gold,0.0,213.0,1.0,right,2023_Aug_02_1332,habits_v_MRI,5.0,40.0,1.0,5.0,30.0,15.0,5.0,15.0,30.0,30.0,60.0,RR,59.99111588361881,
21.0,0.0,resp1,stim/left_resp_img.png,"[0.5, 0]",left,stim/gold_coin.png,silver,,,,,training,,,gold,val,,,,,0.0,1.0,1.0,1.0,2.0,0.0,4.0,0.0,,,,,,,,,1.0,training_resp,,290.5075981931295,22.36365347867832,14.0,,left,gold,0.0,213.0,1.0,right,2023_Aug_02_1332,habits_v_MRI,5.0,40.0,1.0,5.0,30.0,15.0,5.0,15.0,30.0,30.0,60.0,RR,59.99111588361881,
21.0,0.0,resp1,stim/left_resp_img.png,"[0.5, 0]",left,stim/gold_coin.png,silver,,,,,training,,,gold,val,,,,,0.0,1.0,1.0,1.0,2.0,0.0,4.0,0.0,,,,,,,,,1.0,training_resp,,291.9574899408035,23.813561648130417,14.0,,left,gold,0.0,213.0,1.0,right,2023_Aug_02_1332,habits_v_MRI,5.0,40.0,1.0,5.0,30.0,15.0,5.0,15.0,30.0,30.0,60.0,RR,59.99111588361881,
21.0,0.0,resp1,stim/left_resp_img.png,"[0.5, 0]",left,stim/gold_coin.png,silver,,,,,training,,,gold,val,,,,,0.0,1.0,1.0,1.0,2.0,0.0,4.0,0.0,,,,,,,,,1.0,training_resp,,294.490679563256,26.34678118187003,14.0,,left,gold,0.0,213.0,1.0,right,2023_Aug_02_1332,habits_v_MRI,5.0,40.0,1.0,5.0,30.0,15.0,5.0,15.0,30.0,30.0,60.0,RR,59.99111588361881,
21.0,0.0,resp1,stim/left_resp_img.png,"[0.5, 0]",left,stim/gold_coin.png,silver,,,,,training,,,gold,val,,,,,0.0,1.0,1.0,1.0,2.0,0.0,4.0,0.0,,,,,,,,,1.0,ITI_start,20.0,297.8245701647829,29.67991373827681,,,,,,213.0,1.0,right,2023_Aug_02_1332,habits_v_MRI,5.0,40.0,1.0,5.0,30.0,15.0,5.0,15.0,30.0,30.0,60.0,RR,59.99111588361881,
21.0,1.0,resp2,stim/right_resp_img.png,"[-0.5, 0]",right,stim/silver_coin.png,silver,,,,,training,,,silver,deval,,,,,0.0,1.0,1.0,1.0,2.0,1.0,5.0,1.0,,,,,,,,,1.0,training_period_start,60.0,317.8609234895557,0.0,15.0,11.0,,,,213.0,1.0,right,2023_Aug_02_1332,habits_v_MRI,5.0,40.0,1.0,5.0,30.0,15.0,5.0,15.0,30.0,30.0,60.0,RR,59.99111588361881,
21.0,1.0,resp2,stim/right_resp_img.png,"[-0.5, 0]",right,stim/silver_coin.png,silver,,,,,training,,,silver,deval,,,,,0.0,1.0,1.0,1.0,2.0,1.0,5.0,1.0,,,,,,,,,1.0,training_resp,,322.7391960967798,4.897853339323774,15.0,,right,silver,0.0,213.0,1.0,right,2023_Aug_02_1332,habits_v_MRI,5.0,40.0,1.0,5.0,30.0,15.0,5.0,15.0,30.0,30.0,60.0,RR,59.99111588361881,
21.0,1.0,resp2,stim/right_resp_img.png,"[-0.5, 0]",right,stim/silver_coin.png,silver,,,,,training,,,silver,deval,,,,,0.0,1.0,1.0,1.0,2.0,1.0,5.0,1.0,,,,,,,,,1.0,training_resp,,326.23908275645226,8.397695132298395,15.0,,right,silver,0.0,213.0,1.0,right,2023_Aug_02_1332,habits_v_MRI,5.0,40.0,1.0,5.0,30.0,15.0,5.0,15.0,30.0,30.0,60.0,RR,59.99111588361881,
21.0,1.0,resp2,stim/right_resp_img.png,"[-0.5, 0]",right,stim/silver_coin.png,silver,,,,,training,,,silver,deval,,,,,0.0,1.0,1.0,1.0,2.0,1.0,5.0,1.0,,,,,,,,,1.0,training_resp,,327.8889195495285,10.047594093717636,15.0,,right,silver,0.0,213.0,1.0,right,2023_Aug_02_1332,habits_v_MRI,5.0,40.0,1.0,5.0,30.0,15.0,5.0,15.0,30.0,30.0,60.0,RR,59.99111588361881,
21.0,1.0,resp2,stim/right_resp_img.png,"[-0.5, 0]",right,stim/silver_coin.png,silver,,,,,training,,,silver,deval,,,,,0.0,1.0,1.0,1.0,2.0,1.0,5.0,1.0,,,,,,,,,1.0,training_resp,,332.5219814039301,14.680664745625108,15.0,,right,silver,0.0,213.0,1.0,right,2023_Aug_02_1332,habits_v_MRI,5.0,40.0,1.0,5.0,30.0,15.0,5.0,15.0,30.0,30.0,60.0,RR,59.99111588361881,
21.0,1.0,resp2,stim/right_resp_img.png,"[-0.5, 0]",right,stim/silver_coin.png,silver,,,,,training,,,silver,deval,,,,,0.0,1.0,1.0,1.0,2.0,1.0,5.0,1.0,,,,,,,,,1.0,training_resp,,339.3549302406609,21.513618274359036,15.0,,right,silver,0.0,213.0,1.0,right,2023_Aug_02_1332,habits_v_MRI,5.0,40.0,1.0,5.0,30.0,15.0,5.0,15.0,30.0,30.0,60.0,RR,59.99111588361881,
21.0,1.0,resp2,stim/right_resp_img.png,"[-0.5, 0]",right,stim/silver_coin.png,silver,,,,,training,,,silver,deval,,,,,0.0,1.0,1.0,1.0,2.0,1.0,5.0,1.0,,,,,,,,,1.0,training_resp,,341.22133599524386,23.380088249919936,15.0,,right,silver,0.0,213.0,1.0,right,2023_Aug_02_1332,habits_v_MRI,5.0,40.0,1.0,5.0,30.0,15.0,5.0,15.0,30.0,30.0,60.0,RR,59.99111588361881,
21.0,1.0,resp2,stim/right_resp_img.png,"[-0.5, 0]",right,stim/silver_coin.png,silver,,,,,training,,,silver,deval,,,,,0.0,1.0,1.0,1.0,2.0,1.0,5.0,1.0,,,,,,,,,1.0,training_resp,,346.77113076578826,28.92982671712525,15.0,,right,silver,0.0,213.0,1.0,right,2023_Aug_02_1332,habits_v_MRI,5.0,40.0,1.0,5.0,30.0,15.0,5.0,15.0,30.0,30.0,60.0,RR,59.99111588361881,
21.0,1.0,resp2,stim/right_resp_img.png,"[-0.5, 0]",right,stim/silver_coin.png,silver,,,,,training,,,silver,deval,,,,,0.0,1.0,1.0,1.0,2.0,1.0,5.0,1.0,,,,,,,,,1.0,training_resp,,352.4209353015758,34.57961277826689,15.0,,right,silver,0.0,213.0,1.0,right,2023_Aug_02_1332,habits_v_MRI,5.0,40.0,1.0,5.0,30.0,15.0,5.0,15.0,30.0,30.0,60.0,RR,59.99111588361881,
21.0,1.0,resp2,stim/right_resp_img.png,"[-0.5, 0]",right,stim/silver_coin.png,silver,,,,,training,,,silver,deval,,,,,0.0,1.0,1.0,1.0,2.0,1.0,5.0,1.0,,,,,,,,,1.0,training_resp,,356.57042591576464,38.72918843431398,15.0,,right,silver,0.0,213.0,1.0,right,2023_Aug_02_1332,habits_v_MRI,5.0,40.0,1.0,5.0,30.0,15.0,5.0,15.0,30.0,30.0,60.0,RR,59.99111588361881,
21.0,1.0,resp2,stim/right_resp_img.png,"[-0.5, 0]",right,stim/silver_coin.png,silver,,,,,training,,,silver,deval,,,,,0.0,1.0,1.0,1.0,2.0,1.0,5.0,1.0,,,,,,,,,1.0,training_resp,,363.5201673740521,45.67889382294379,15.0,,right,silver,0.0,213.0,1.0,right,2023_Aug_02_1332,habits_v_MRI,5.0,40.0,1.0,5.0,30.0,15.0,5.0,15.0,30.0,30.0,60.0,RR,59.99111588361881,
21.0,1.0,resp2,stim/right_resp_img.png,"[-0.5, 0]",right,stim/silver_coin.png,silver,,,,,training,,,silver,deval,,,,,0.0,1.0,1.0,1.0,2.0,1.0,5.0,1.0,,,,,,,,,1.0,training_resp,,366.7867444436997,48.94535388704389,15.0,8.0,right,silver,1.0,213.0,1.0,right,2023_Aug_02_1332,habits_v_MRI,5.0,40.0,1.0,5.0,30.0,15.0,5.0,15.0,30.0,30.0,60.0,RR,59.99111588361881,
21.0,1.0,resp2,stim/right_resp_img.png,"[-0.5, 0]",right,stim/silver_coin.png,silver,,,,,training,,,silver,deval,,,,,0.0,1.0,1.0,1.0,2.0,1.0,5.0,1.0,,,,,,,,,1.0,ITI_start,25.0,377.5201198677533,59.67813431168906,,,,,,213.0,1.0,right,2023_Aug_02_1332,habits_v_MRI,5.0,40.0,1.0,5.0,30.0,15.0,5.0,15.0,30.0,30.0,60.0,RR,59.99111588361881,
21.0,0.0,resp1,stim/left_resp_img.png,"[0.5, 0]",left,stim/gold_coin.png,silver,,,,,training,,,gold,val,,,,,0.0,1.0,1.0,1.0,3.0,0.0,6.0,0.0,,,,,,,,,1.0,training_period_start,52.5,402.5559512118343,0.0,16.0,11.0,,,,213.0,1.0,right,2023_Aug_02_1332,habits_v_MRI,5.0,40.0,1.0,5.0,30.0,15.0,5.0,15.0,30.0,30.0,60.0,RR,59.99111588361881,
21.0,0.0,resp1,stim/left_resp_img.png,"[0.5, 0]",left,stim/gold_coin.png,silver,,,,,training,,,gold,val,,,,,0.0,1.0,1.0,1.0,3.0,0.0,6.0,0.0,,,,,,,,,1.0,training_resp,,410.5175659740344,7.981093150796369,16.0,,left,gold,0.0,213.0,1.0,right,2023_Aug_02_1332,habits_v_MRI,5.0,40.0,1.0,5.0,30.0,15.0,5.0,15.0,30.0,30.0,60.0,RR,59.99111588361881,
21.0,0.0,resp1,stim/left_resp_img.png,"[0.5, 0]",left,stim/gold_coin.png,silver,,,,,training,,,gold,val,,,,,0.0,1.0,1.0,1.0,3.0,0.0,6.0,0.0,,,,,,,,,1.0,training_resp,,419.483845426701,16.94724738691002,16.0,,left,gold,0.0,213.0,1.0,right,2023_Aug_02_1332,habits_v_MRI,5.0,40.0,1.0,5.0,30.0,15.0,5.0,15.0,30.0,30.0,60.0,RR,59.99111588361881,
21.0,0.0,resp1,stim/left_resp_img.png,"[0.5, 0]",left,stim/gold_coin.png,silver,,,,,training,,,gold,val,,,,,0.0,1.0,1.0,1.0,3.0,0.0,6.0,0.0,,,,,,,,,1.0,training_resp,,426.8499214241747,24.31352074001916,16.0,,left,gold,0.0,213.0,1.0,right,2023_Aug_02_1332,habits_v_MRI,5.0,40.0,1.0,5.0,30.0,15.0,5.0,15.0,30.0,30.0,60.0,RR,59.99111588361881,
21.0,0.0,resp1,stim/left_resp_img.png,"[0.5, 0]",left,stim/gold_coin.png,silver,,,,,training,,,gold,val,,,,,0.0,1.0,1.0,1.0,3.0,0.0,6.0,0.0,,,,,,,,,1.0,training_resp,,440.18301058001816,37.64611665322445,16.0,,right,,,213.0,1.0,right,2023_Aug_02_1332,habits_v_MRI,5.0,40.0,1.0,5.0,30.0,15.0,5.0,15.0,30.0,30.0,60.0,RR,59.99111588361881,
21.0,0.0,resp1,stim/left_resp_img.png,"[0.5, 0]",left,stim/gold_coin.png,silver,,,,,training,,,gold,val,,,,,0.0,1.0,1.0,1.0,3.0,0.0,6.0,0.0,,,,,,,,,1.0,training_resp,,442.78258795151487,40.245944164926186,16.0,,left,gold,0.0,213.0,1.0,right,2023_Aug_02_1332,habits_v_MRI,5.0,40.0,1.0,5.0,30.0,15.0,5.0,15.0,30.0,30.0,60.0,RR,59.99111588361881,
21.0,0.0,resp1,stim/left_resp_img.png,"[0.5, 0]",left,stim/gold_coin.png,silver,,,,,training,,,gold,val,,,,,0.0,1.0,1.0,1.0,3.0,0.0,6.0,0.0,,,,,,,,,1.0,training_resp,,451.76524469908327,49.22873258055188,16.0,,left,gold,0.0,213.0,1.0,right,2023_Aug_02_1332,habits_v_MRI,5.0,40.0,1.0,5.0,30.0,15.0,5.0,15.0,30.0,30.0,60.0,RR,59.99111588361881,
21.0,0.0,resp1,stim/left_resp_img.png,"[0.5, 0]",left,stim/gold_coin.png,silver,,,,,training,,,gold,val,,,,,0.0,1.0,1.0,1.0,3.0,0.0,6.0,0.0,,,,,,,,,1.0,ITI_start,21.666666666666668,454.7160433148965,52.17861274490133,,,,,,213.0,1.0,right,2023_Aug_02_1332,habits_v_MRI,5.0,40.0,1.0,5.0,30.0,15.0,5.0,15.0,30.0,30.0,60.0,RR,59.99111588361881,
21.0,1.0,resp2,stim/right_resp_img.png,"[-0.5, 0]",right,stim/silver_coin.png,silver,,,,,training,,,silver,deval,,,,,0.0,1.0,1.0,1.0,3.0,1.0,7.0,1.0,,,,,,,,,1.0,training_period_start,45.0,476.41828404949047,0.0,17.0,7.0,,,,213.0,1.0,right,2023_Aug_02_1332,habits_v_MRI,5.0,40.0,1.0,5.0,30.0,15.0,5.0,15.0,30.0,30.0,60.0,RR,59.99111588361881,
21.0,1.0,resp2,stim/right_resp_img.png,"[-0.5, 0]",right,stim/silver_coin.png,silver,,,,,training,,,silver,deval,,,,,0.0,1.0,1.0,1.0,3.0,1.0,7.0,1.0,,,,,,,,,1.0,training_resp,,481.4302438618615,5.031245830236003,17.0,,right,silver,0.0,213.0,1.0,right,2023_Aug_02_1332,habits_v_MRI,5.0,40.0,1.0,5.0,30.0,15.0,5.0,15.0,30.0,30.0,60.0,RR,59.99111588361881,
21.0,1.0,resp2,stim/right_resp_img.png,"[-0.5, 0]",right,stim/silver_coin.png,silver,,,,,training,,,silver,deval,,,,,0.0,1.0,1.0,1.0,3.0,1.0,7.0,1.0,,,,,,,,,1.0,training_resp,,488.246585204266,11.84754875744693,17.0,,right,silver,0.0,213.0,1.0,right,2023_Aug_02_1332,habits_v_MRI,5.0,40.0,1.0,5.0,30.0,15.0,5.0,15.0,30.0,30.0,60.0,RR,59.99111588361881,
21.0,1.0,resp2,stim/right_resp_img.png,"[-0.5, 0]",right,stim/silver_coin.png,silver,,,,,training,,,silver,deval,,,,,0.0,1.0,1.0,1.0,3.0,1.0,7.0,1.0,,,,,,,,,1.0,training_resp,,490.0964189476799,13.697451413841918,17.0,,right,silver,0.0,213.0,1.0,right,2023_Aug_02_1332,habits_v_MRI,5.0,40.0,1.0,5.0,30.0,15.0,5.0,15.0,30.0,30.0,60.0,RR,59.99111588361881,
21.0,1.0,resp2,stim/right_resp_img.png,"[-0.5, 0]",right,stim/silver_coin.png,silver,,,,,training,,,silver,deval,,,,,0.0,1.0,1.0,1.0,3.0,1.0,7.0,1.0,,,,,,,,,1.0,training_resp,,498.6458943716716,22.246946778614078,17.0,,right,silver,0.0,213.0,1.0,right,2023_Aug_02_1332,habits_v_MRI,5.0,40.0,1.0,5.0,30.0,15.0,5.0,15.0,30.0,30.0,60.0,RR,59.99111588361881,
21.0,1.0,resp2,stim/right_resp_img.png,"[-0.5, 0]",right,stim/silver_coin.png,silver,,,,,training,,,silver,deval,,,,,0.0,1.0,1.0,1.0,3.0,1.0,7.0,1.0,,,,,,,,,1.0,training_resp,,503.212393994676,26.813375142635778,17.0,,right,silver,0.0,213.0,1.0,right,2023_Aug_02_1332,habits_v_MRI,5.0,40.0,1.0,5.0,30.0,15.0,5.0,15.0,30.0,30.0,60.0,RR,59.99111588361881,
21.0,1.0,resp2,stim/right_resp_img.png,"[-0.5, 0]",right,stim/silver_coin.png,silver,,,,,training,,,silver,deval,,,,,0.0,1.0,1.0,1.0,3.0,1.0,7.0,1.0,,,,,,,,,1.0,training_resp,,510.5618657236919,34.16293865814805,17.0,,right,silver,0.0,213.0,1.0,right,2023_Aug_02_1332,habits_v_MRI,5.0,40.0,1.0,5.0,30.0,15.0,5.0,15.0,30.0,30.0,60.0,RR,59.99111588361881,
21.0,1.0,resp2,stim/right_resp_img.png,"[-0.5, 0]",right,stim/silver_coin.png,silver,,,,,training,,,silver,deval,,,,,0.0,1.0,1.0,1.0,3.0,1.0,7.0,1.0,,,,,,,,,1.0,training_resp,,518.8114740180317,42.41252056020312,17.0,17.0,right,silver,1.0,213.0,1.0,right,2023_Aug_02_1332,habits_v_MRI,5.0,40.0,1.0,5.0,30.0,15.0,5.0,15.0,30.0,30.0,60.0,RR,59.99111588361881,
21.0,1.0,resp2,stim/right_resp_img.png,"[-0.5, 0]",right,stim/silver_coin.png,silver,,,,,training,,,silver,deval,,,,,0.0,1.0,1.0,1.0,3.0,1.0,7.0,1.0,,,,,,,,,1.0,ITI_start,15.0,521.0786402223166,44.67903810064308,,,,,,213.0,1.0,right,2023_Aug_02_1332,habits_v_MRI,5.0,40.0,1.0,5.0,30.0,15.0,5.0,15.0,30.0,30.0,60.0,RR,59.99111588361881,
21.0,0.0,resp1,stim/left_resp_img.png,"[0.5, 0]",left,stim/gold_coin.png,silver,,,,,training,,,gold,val,,,,,0.0,1.0,1.0,1.0,4.0,0.0,8.0,0.0,,,,,,,,,1.0,training_period_start,60.0,536.1150178865064,0.0,18.0,11.0,,,,213.0,1.0,right,2023_Aug_02_1332,habits_v_MRI,5.0,40.0,1.0,5.0,30.0,15.0,5.0,15.0,30.0,30.0,60.0,RR,59.99111588361881,
21.0,0.0,resp1,stim/left_resp_img.png,"[0.5, 0]",left,stim/gold_coin.png,silver,,,,,training,,,gold,val,,,,,0.0,1.0,1.0,1.0,4.0,0.0,8.0,0.0,,,,,,,,,1.0,training_resp,,537.5104597038589,1.4148744591511786,18.0,,left,gold,0.0,213.0,1.0,right,2023_Aug_02_1332,habits_v_MRI,5.0,40.0,1.0,5.0,30.0,15.0,5.0,15.0,30.0,30.0,60.0,RR,59.99111588361881,
21.0,0.0,resp1,stim/left_resp_img.png,"[0.5, 0]",left,stim/gold_coin.png,silver,,,,,training,,,gold,val,,,,,0.0,1.0,1.0,1.0,4.0,0.0,8.0,0.0,,,,,,,,,1.0,training_resp,,549.7264005288016,13.630867775529625,18.0,,left,gold,0.0,213.0,1.0,right,2023_Aug_02_1332,habits_v_MRI,5.0,40.0,1.0,5.0,30.0,15.0,5.0,15.0,30.0,30.0,60.0,RR,59.99111588361881,
21.0,0.0,resp1,stim/left_resp_img.png,"[0.5, 0]",left,stim/gold_coin.png,silver,,,,,training,,,gold,val,,,,,0.0,1.0,1.0,1.0,4.0,0.0,8.0,0.0,,,,,,,,,1.0,training_resp,,561.025966786081,24.930391805246472,18.0,,left,gold,0.0,213.0,1.0,right,2023_Aug_02_1332,habits_v_MRI,5.0,40.0,1.0,5.0,30.0,15.0,5.0,15.0,30.0,30.0,60.0,RR,59.99111588361881,
21.0,0.0,resp1,stim/left_resp_img.png,"[0.5, 0]",left,stim/gold_coin.png,silver,,,,,training,,,gold,val,,,,,0.0,1.0,1.0,1.0,4.0,0.0,8.0,0.0,,,,,,,,,1.0,training_resp,,564.0422637311276,27.94677643105388,18.0,,left,gold,0.0,213.0,1.0,right,2023_Aug_02_1332,habits_v_MRI,5.0,40.0,1.0,5.0,30.0,15.0,5.0,15.0,30.0,30.0,60.0,RR,59.99111588361881,
21.0,0.0,resp1,stim/left_resp_img.png,"[0.5, 0]",left,stim/gold_coin.png,silver,,,,,training,,,gold,val,,,,,0.0,1.0,1.0,1.0,4.0,0.0,8.0,0.0,,,,,,,,,1.0,training_resp,,573.8750618386548,37.77951383637264,18.0,,left,gold,0.0,213.0,1.0,right,2023_Aug_02_1332,habits_v_MRI,5.0,40.0,1.0,5.0,30.0,15.0,5.0,15.0,30.0,30.0,60.0,RR,59.99111588361881,
21.0,0.0,resp1,stim/left_resp_img.png,"[0.5, 0]",left,stim/gold_coin.png,silver,,,,,training,,,gold,val,,,,,0.0,1.0,1.0,1.0,4.0,0.0,8.0,0.0,,,,,,,,,1.0,training_resp,,581.9913040341344,45.895751633215696,18.0,,left,gold,0.0,213.0,1.0,right,2023_Aug_02_1332,habits_v_MRI,5.0,40.0,1.0,5.0,30.0,15.0,5.0,15.0,30.0,30.0,60.0,RR,59.99111588361881,
21.0,0.0,resp1,stim/left_resp_img.png,"[0.5, 0]",left,stim/gold_coin.png,silver,,,,,training,,,gold,val,,,,,0.0,1.0,1.0,1.0,4.0,0.0,8.0,0.0,,,,,,,,,1.0,training_resp,,595.2904796856456,59.19493139022961,18.0,,left,gold,0.0,213.0,1.0,right,2023_Aug_02_1332,habits_v_MRI,5.0,40.0,1.0,5.0,30.0,15.0,5.0,15.0,30.0,30.0,60.0,RR,59.99111588361881,
21.0,0.0,resp1,stim/left_resp_img.png,"[0.5, 0]",left,stim/gold_coin.png,silver,,,,,training,,,gold,val,,,,,0.0,1.0,1.0,1.0,4.0,0.0,8.0,0.0,,,,,,,,,1.0,ITI_start,18.33333333333333,595.7730544703081,59.67823988059536,,,,,,213.0,1.0,right,2023_Aug_02_1332,habits_v_MRI,5.0,40.0,1.0,5.0,30.0,15.0,5.0,15.0,30.0,30.0,60.0,RR,59.99111588361881,
21.0,1.0,resp2,stim/right_resp_img.png,"[-0.5, 0]",right,stim/silver_coin.png,silver,,,,,training,,,silver,deval,,,,,0.0,1.0,1.0,1.0,4.0,1.0,9.0,1.0,,,,,,,,,1.0,training_period_start,37.5,614.1446350195911,0.0,19.0,24.0,,,,213.0,1.0,right,2023_Aug_02_1332,habits_v_MRI,5.0,40.0,1.0,5.0,30.0,15.0,5.0,15.0,30.0,30.0,60.0,RR,59.99111588361881,
21.0,1.0,resp2,stim/right_resp_img.png,"[-0.5, 0]",right,stim/silver_coin.png,silver,,,,,training,,,silver,deval,,,,,0.0,1.0,1.0,1.0,4.0,1.0,9.0,1.0,,,,,,,,,1.0,training_resp,,617.7559232360218,3.6313877035863698,19.0,,right,silver,0.0,213.0,1.0,right,2023_Aug_02_1332,habits_v_MRI,5.0,40.0,1.0,5.0,30.0,15.0,5.0,15.0,30.0,30.0,60.0,RR,59.99111588361881,
21.0,1.0,resp2,stim/right_resp_img.png,"[-0.5, 0]",right,stim/silver_coin.png,silver,,,,,training,,,silver,deval,,,,,0.0,1.0,1.0,1.0,4.0,1.0,9.0,1.0,,,,,,,,,1.0,training_resp,,623.2222048880067,9.097732110647485,19.0,,right,silver,0.0,213.0,1.0,right,2023_Aug_02_1332,habits_v_MRI,5.0,40.0,1.0,5.0,30.0,15.0,5.0,15.0,30.0,30.0,60.0,RR,59.99111588361881,
21.0,1.0,resp2,stim/right_resp_img.png,"[-0.5, 0]",right,stim/silver_coin.png,silver,,,,,training,,,silver,deval,,,,,0.0,1.0,1.0,1.0,4.0,1.0,9.0,1.0,,,,,,,,,1.0,training_resp,,626.6888311060611,12.564308770000936,19.0,,right,silver,0.0,213.0,1.0,right,2023_Aug_02_1332,habits_v_MRI,5.0,40.0,1.0,5.0,30.0,15.0,5.0,15.0,30.0,30.0,60.0,RR,59.99111588361881,
21.0,1.0,resp2,stim/right_resp_img.png,"[-0.5, 0]",right,stim/silver_coin.png,silver,,,,,training,,,silver,deval,,,,,0.0,1.0,1.0,1.0,4.0,1.0,9.0,1.0,,,,,,,,,1.0,training_resp,,630.1051122741774,15.980662663467228,19.0,,right,silver,0.0,213.0,1.0,right,2023_Aug_02_1332,habits_v_MRI,5.0,40.0,1.0,5.0,30.0,15.0,5.0,15.0,30.0,30.0,60.0,RR,59.99111588361881,
21.0,1.0,resp2,stim/right_resp_img.png,"[-0.5, 0]",right,stim/silver_coin.png,silver,,,,,training,,,silver,deval,,,,,0.0,1.0,1.0,1.0,4.0,1.0,9.0,1.0,,,,,,,,,1.0,training_resp,,637.4047653328162,23.280240944121037,19.0,,right,silver,0.0,213.0,1.0,right,2023_Aug_02_1332,habits_v_MRI,5.0,40.0,1.0,5.0,30.0,15.0,5.0,15.0,30.0,30.0,60.0,RR,59.99111588361881,
21.0,1.0,resp2,stim/right_resp_img.png,"[-0.5, 0]",right,stim/silver_coin.png,silver,,,,,training,,,silver,deval,,,,,0.0,1.0,1.0,1.0,4.0,1.0,9.0,1.0,,,,,,,,,1.0,ITI_start,26.666666666666668,651.3033212935552,37.17948486376554,,,,,,213.0,1.0,right,2023_Aug_02_1332,habits_v_MRI,5.0,40.0,1.0,5.0,30.0,15.0,5.0,15.0,30.0,30.0,60.0,RR,59.99111588361881,
21.0,3.0,resp1_vs_resp2,,,,,silver,,,,,consumption,right,left,,,silver,gold,deval,val,0.0,1.0,1.0,1.0,,,,,,,,,,,,,1.0,piggy_full_msg,7.0,678.0259785160888,,,,,,,213.0,1.0,right,2023_Aug_02_1332,habits_v_MRI,5.0,40.0,1.0,5.0,30.0,15.0,5.0,15.0,30.0,30.0,60.0,RR,59.99111588361881,
21.0,3.0,resp1_vs_resp2,,,,,silver,,,,,consumption,right,left,,,silver,gold,deval,val,0.0,1.0,1.0,1.0,,,,,,,,,,,,,1.0,instr_before_consumption,7.0,685.0339744996745,,,,,,,213.0,1.0,right,2023_Aug_02_1332,habits_v_MRI,5.0,40.0,1.0,5.0,30.0,15.0,5.0,15.0,30.0,30.0,60.0,RR,59.99111588361881,
21.0,3.0,resp1_vs_resp2,,,,,silver,,,,,consumption,right,left,,,silver,gold,deval,val,0.0,1.0,1.0,1.0,,,,,,,,,,,,,1.0,consumption_start,15.0,692.0510910719167,0.0,,,,,,213.0,1.0,right,2023_Aug_02_1332,habits_v_MRI,5.0,40.0,1.0,5.0,30.0,15.0,5.0,15.0,30.0,30.0,60.0,RR,59.99111588361881,
21.0,3.0,resp1_vs_resp2,,,,,silver,,,,,consumption,right,left,,,silver,gold,deval,val,0.0,1.0,1.0,1.0,,,,,,,,,,,,,1.0,consumption_resp,,693.0497192593757,0.9982883136253804,,,left,gold,,213.0,1.0,right,2023_Aug_02_1332,habits_v_MRI,5.0,40.0,1.0,5.0,30.0,15.0,5.0,15.0,30.0,30.0,60.0,RR,59.99111588361881,
21.0,3.0,resp1_vs_resp2,,,,,silver,,,,,consumption,right,left,,,silver,gold,deval,val,0.0,1.0,1.0,1.0,,,,,,,,,,,,,1.0,consumption_resp,,693.2665861602873,1.2152323387563229,,,left,gold,,213.0,1.0,right,2023_Aug_02_1332,habits_v_MRI,5.0,40.0,1.0,5.0,30.0,15.0,5.0,15.0,30.0,30.0,60.0,RR,59.99111588361881,
21.0,3.0,resp1_vs_resp2,,,,,silver,,,,,consumption,right,left,,,silver,gold,deval,val,0.0,1.0,1.0,1.0,,,,,,,,,,,,,1.0,consumption_resp,,693.7498691382352,1.6985035866964608,,,left,gold,,213.0,1.0,right,2023_Aug_02_1332,habits_v_MRI,5.0,40.0,1.0,5.0,30.0,15.0,5.0,15.0,30.0,30.0,60.0,RR,59.99111588361881,
21.0,3.0,resp1_vs_resp2,,,,,silver,,,,,consumption,right,left,,,silver,gold,deval,val,0.0,1.0,1.0,1.0,,,,,,,,,,,,,1.0,consumption_resp,,694.3165077606682,2.265143968630582,,,left,gold,,213.0,1.0,right,2023_Aug_02_1332,habits_v_MRI,5.0,40.0,1.0,5.0,30.0,15.0,5.0,15.0,30.0,30.0,60.0,RR,59.99111588361881,
21.0,3.0,resp1_vs_resp2,,,,,silver,,,,,consumption,right,left,,,silver,gold,deval,val,0.0,1.0,1.0,1.0,,,,,,,,,,,,,1.0,consumption_resp,,695.2831223953981,3.231768280500546,,,left,gold,,213.0,1.0,right,2023_Aug_02_1332,habits_v_MRI,5.0,40.0,1.0,5.0,30.0,15.0,5.0,15.0,30.0,30.0,60.0,RR,59.99111588361881,
21.0,3.0,resp1_vs_resp2,,,,,silver,,,,,consumption,right,left,,,silver,gold,deval,val,0.0,1.0,1.0,1.0,,,,,,,,,,,,,1.0,consumption_resp,,695.616401282372,3.56504980660975,,,left,gold,,213.0,1.0,right,2023_Aug_02_1332,habits_v_MRI,5.0,40.0,1.0,5.0,30.0,15.0,5.0,15.0,30.0,30.0,60.0,RR,59.99111588361881,
21.0,3.0,resp1_vs_resp2,,,,,silver,,,,,consumption,right,left,,,silver,gold,deval,val,0.0,1.0,1.0,1.0,,,,,,,,,,,,,1.0,consumption_resp,,696.0664012383204,4.015047416789457,,,left,gold,,213.0,1.0,right,2023_Aug_02_1332,habits_v_MRI,5.0,40.0,1.0,5.0,30.0,15.0,5.0,15.0,30.0,30.0,60.0,RR,59.99111588361881,
21.0,3.0,resp1_vs_resp2,,,,,silver,,,,,consumption,right,left,,,silver,gold,deval,val,0.0,1.0,1.0,1.0,,,,,,,,,,,,,1.0,consumption_resp,,696.4830809300765,4.431729454547167,,,left,gold,,213.0,1.0,right,2023_Aug_02_1332,habits_v_MRI,5.0,40.0,1.0,5.0,30.0,15.0,5.0,15.0,30.0,30.0,60.0,RR,59.99111588361881,
21.0,3.0,resp1_vs_resp2,,,,,silver,,,,,consumption,right,left,,,silver,gold,deval,val,0.0,1.0,1.0,1.0,,,,,,,,,,,,,1.0,consumption_resp,,696.8163967663422,4.765045290580019,,,left,gold,,213.0,1.0,right,2023_Aug_02_1332,habits_v_MRI,5.0,40.0,1.0,5.0,30.0,15.0,5.0,15.0,30.0,30.0,60.0,RR,59.99111588361881,
21.0,3.0,resp1_vs_resp2,,,,,silver,,,,,consumption,right,left,,,silver,gold,deval,val,0.0,1.0,1.0,1.0,,,,,,,,,,,,,1.0,consumption_resp,,698.3829805515707,6.331620864802972,,,left,gold,,213.0,1.0,right,2023_Aug_02_1332,habits_v_MRI,5.0,40.0,1.0,5.0,30.0,15.0,5.0,15.0,30.0,30.0,60.0,RR,59.99111588361881,
21.0,3.0,resp1_vs_resp2,,,,,silver,,,,,consumption,right,left,,,silver,gold,deval,val,0.0,1.0,1.0,1.0,,,,,,,,,,,,,1.0,instr_after_consumption,3.0,707.048442165833,14.997799762990326,,,,,,213.0,1.0,right,2023_Aug_02_1332,habits_v_MRI,5.0,40.0,1.0,5.0,30.0,15.0,5.0,15.0,30.0,30.0,60.0,RR,59.99111588361881,
21.0,3.0,resp1_vs_resp2,,,,,silver,,,,,consumption,right,left,,,silver,gold,deval,val,0.0,1.0,1.0,1.0,,,,,,,,,,,,,1.0,rest_after_block,3.0,710.0658578504808,,,,,,,213.0,1.0,right,2023_Aug_02_1332,habits_v_MRI,5.0,40.0,1.0,5.0,30.0,15.0,5.0,15.0,30.0,30.0,60.0,RR,59.99111588361881,
21.0,4.0,resp1_vs_resp2,,,,,silver,stim/right_resp_img.png,stim/left_resp_img.png,"[-0.5, 0]","[0.5, 0]",choice,right,left,,,silver,gold,deval,val,,,,,,,,,0.0,0.0,0.0,0.0,,,,,1.0,instr_before_choice_test,10.0,713.0842626595404,,,,,,,213.0,1.0,right,2023_Aug_02_1332,habits_v_MRI,5.0,40.0,1.0,5.0,30.0,15.0,5.0,15.0,30.0,30.0,60.0,RR,59.99111588361881,
21.0,4.0,resp1_vs_resp2,,,,,silver,stim/right_resp_img.png,stim/left_resp_img.png,"[-0.5, 0]","[0.5, 0]",choice,right,left,,,silver,gold,deval,val,,,,,,,,,0.0,0.0,0.0,0.0,,,,,1.0,choice_test_start,90.0,723.1822853786871,0.0,,12.0,,,,213.0,1.0,right,2023_Aug_02_1332,habits_v_MRI,5.0,40.0,1.0,5.0,30.0,15.0,5.0,15.0,30.0,30.0,60.0,RR,59.99111588361881,
21.0,4.0,resp1_vs_resp2,,,,,silver,stim/right_resp_img.png,stim/left_resp_img.png,"[-0.5, 0]","[0.5, 0]",choice,right,left,,,silver,gold,deval,val,,,,,,,,,0.0,0.0,0.0,0.0,,,,,1.0,choice_resp,,728.5490085736383,5.366164264967665,,,left,gold,0.0,213.0,1.0,right,2023_Aug_02_1332,habits_v_MRI,5.0,40.0,1.0,5.0,30.0,15.0,5.0,15.0,30.0,30.0,60.0,RR,59.99111588361881,
21.0,4.0,resp1_vs_resp2,,,,,silver,stim/right_resp_img.png,stim/left_resp_img.png,"[-0.5, 0]","[0.5, 0]",choice,right,left,,,silver,gold,deval,val,,,,,,,,,0.0,0.0,0.0,0.0,,,,,1.0,choice_resp,,729.58199776127,6.399490687297657,,,right,silver,,213.0,1.0,right,2023_Aug_02_1332,habits_v_MRI,5.0,40.0,1.0,5.0,30.0,15.0,5.0,15.0,30.0,30.0,60.0,RR,59.99111588361881,
21.0,4.0,resp1_vs_resp2,,,,,silver,stim/right_resp_img.png,stim/left_resp_img.png,"[-0.5, 0]","[0.5, 0]",choice,right,left,,,silver,gold,deval,val,,,,,,,,,0.0,0.0,0.0,0.0,,,,,1.0,choice_resp,,731.6153306351043,8.416077067842707,,,right,silver,,213.0,1.0,right,2023_Aug_02_1332,habits_v_MRI,5.0,40.0,1.0,5.0,30.0,15.0,5.0,15.0,30.0,30.0,60.0,RR,59.99111588361881,
21.0,4.0,resp1_vs_resp2,,,,,silver,stim/right_resp_img.png,stim/left_resp_img.png,"[-0.5, 0]","[0.5, 0]",choice,right,left,,,silver,gold,deval,val,,,,,,,,,0.0,0.0,0.0,0.0,,,,,1.0,choice_resp,,734.9486646528821,11.765996292699128,,,left,gold,0.0,213.0,1.0,right,2023_Aug_02_1332,habits_v_MRI,5.0,40.0,1.0,5.0,30.0,15.0,5.0,15.0,30.0,30.0,60.0,RR,59.99111588361881,
21.0,4.0,resp1_vs_resp2,,,,,silver,stim/right_resp_img.png,stim/left_resp_img.png,"[-0.5, 0]","[0.5, 0]",choice,right,left,,,silver,gold,deval,val,,,,,,,,,0.0,0.0,0.0,0.0,,,,,1.0,choice_resp,,743.1647849453148,19.9655504389666,,,right,silver,,213.0,1.0,right,2023_Aug_02_1332,habits_v_MRI,5.0,40.0,1.0,5.0,30.0,15.0,5.0,15.0,30.0,30.0,60.0,RR,59.99111588361881,
21.0,4.0,resp1_vs_resp2,,,,,silver,stim/right_resp_img.png,stim/left_resp_img.png,"[-0.5, 0]","[0.5, 0]",choice,right,left,,,silver,gold,deval,val,,,,,,,,,0.0,0.0,0.0,0.0,,,,,1.0,choice_resp,,746.9811315664556,23.798706894973293,,,right,silver,,213.0,1.0,right,2023_Aug_02_1332,habits_v_MRI,5.0,40.0,1.0,5.0,30.0,15.0,5.0,15.0,30.0,30.0,60.0,RR,59.99111588361881,
