list,trial_num_python,condition,stimulus,position,corrResp,coin_img,devalued_coin,stimulus_choice1,stimulus_choice2,position1,position2,phase,corrResp1,corrResp2,outcome,cond_val,outcome_choice1,outcome_choice2,cond_val1,cond_val2,blockLoop.thisRepN,blockLoop.thisTrialN,blockLoop.thisN,blockLoop.thisIndex,trialLoop.thisRepN,trialLoop.thisTrialN,trialLoop.thisN,trialLoop.thisIndex,choice_trialLoop.thisRepN,choice_trialLoop.thisTrialN,choice_trialLoop.thisN,choice_trialLoop.thisIndex,contingency_trialLoop.thisRepN,contingency_trialLoop.thisTrialN,contingency_trialLoop.thisN,contingency_trialLoop.thisIndex,run,event,duration,globalClock_t,routineClock_t,trial,nResp_untilRnf,resp,selected_coin,wasRnf,participant,task_ordering,hand,date,expName,n_repeat_training,credits_per_rnf,cost_response,min_resp_bet_rnf,max_resp_bet_rnf,mean_resp_bet_rnf,sigma_resp_bet_rnf,min_ITI,max_ITI,min_trial_duration,max_trial_duration,schedule,frameRate,Unnamed: 65
5.0,0.0,resp1,stim/left_resp_img.png,"[0.5, 0]",left,stim/gold_coin.png,silver,,,,,training,,,gold,val,,,,,0.0,0.0,0.0,0.0,0.0,0.0,0.0,0.0,,,,,,,,,0.0,instr_before_block,6.0,0.0044561522081494,,,,,,,261.0,2.0,right,2023_Nov_09_1806,habits_v_MRI,5.0,40.0,1.0,5.0,30.0,15.0,5.0,15.0,30.0,30.0,60.0,RR,59.87114969729606,
5.0,0.0,resp1,stim/left_resp_img.png,"[0.5, 0]",left,stim/gold_coin.png,silver,,,,,training,,,gold,val,,,,,0.0,0.0,0.0,0.0,0.0,0.0,0.0,0.0,,,,,,,,,0.0,training_period_start,45.0,6.041669538011774,0.0,0.0,13.0,,,,261.0,2.0,right,2023_Nov_09_1806,habits_v_MRI,5.0,40.0,1.0,5.0,30.0,15.0,5.0,15.0,30.0,30.0,60.0,RR,59.87114969729606,
5.0,0.0,resp1,stim/left_resp_img.png,"[0.5, 0]",left,stim/gold_coin.png,silver,,,,,training,,,gold,val,,,,,0.0,0.0,0.0,0.0,0.0,0.0,0.0,0.0,,,,,,,,,0.0,training_resp,,7.218207469210029,1.1986893704161048,0.0,,left,gold,0.0,261.0,2.0,right,2023_Nov_09_1806,habits_v_MRI,5.0,40.0,1.0,5.0,30.0,15.0,5.0,15.0,30.0,30.0,60.0,RR,59.87114969729606,
5.0,0.0,resp1,stim/left_resp_img.png,"[0.5, 0]",left,stim/gold_coin.png,silver,,,,,training,,,gold,val,,,,,0.0,0.0,0.0,0.0,0.0,0.0,0.0,0.0,,,,,,,,,0.0,training_resp,,8.501138817286119,2.4819828763138503,0.0,,left,gold,0.0,261.0,2.0,right,2023_Nov_09_1806,habits_v_MRI,5.0,40.0,1.0,5.0,30.0,15.0,5.0,15.0,30.0,30.0,60.0,RR,59.87114969729606,
5.0,0.0,resp1,stim/left_resp_img.png,"[0.5, 0]",left,stim/gold_coin.png,silver,,,,,training,,,gold,val,,,,,0.0,0.0,0.0,0.0,0.0,0.0,0.0,0.0,,,,,,,,,0.0,training_resp,,9.151146720163524,3.1319614546373487,0.0,,left,gold,0.0,261.0,2.0,right,2023_Nov_09_1806,habits_v_MRI,5.0,40.0,1.0,5.0,30.0,15.0,5.0,15.0,30.0,30.0,60.0,RR,59.87114969729606,
5.0,0.0,resp1,stim/left_resp_img.png,"[0.5, 0]",left,stim/gold_coin.png,silver,,,,,training,,,gold,val,,,,,0.0,0.0,0.0,0.0,0.0,0.0,0.0,0.0,,,,,,,,,0.0,training_resp,,9.801107997307554,3.7818036742974073,0.0,,left,gold,0.0,261.0,2.0,right,2023_Nov_09_1806,habits_v_MRI,5.0,40.0,1.0,5.0,30.0,15.0,5.0,15.0,30.0,30.0,60.0,RR,59.87114969729606,
5.0,0.0,resp1,stim/left_resp_img.png,"[0.5, 0]",left,stim/gold_coin.png,silver,,,,,training,,,gold,val,,,,,0.0,0.0,0.0,0.0,0.0,0.0,0.0,0.0,,,,,,,,,0.0,training_resp,,10.56780339218676,4.548439540434629,0.0,,left,gold,0.0,261.0,2.0,right,2023_Nov_09_1806,habits_v_MRI,5.0,40.0,1.0,5.0,30.0,15.0,5.0,15.0,30.0,30.0,60.0,RR,59.87114969729606,
5.0,0.0,resp1,stim/left_resp_img.png,"[0.5, 0]",left,stim/gold_coin.png,silver,,,,,training,,,gold,val,,,,,0.0,0.0,0.0,0.0,0.0,0.0,0.0,0.0,,,,,,,,,0.0,training_resp,,11.334331344114617,5.315058984793723,0.0,,left,gold,0.0,261.0,2.0,right,2023_Nov_09_1806,habits_v_MRI,5.0,40.0,1.0,5.0,30.0,15.0,5.0,15.0,30.0,30.0,60.0,RR,59.87114969729606,
5.0,0.0,resp1,stim/left_resp_img.png,"[0.5, 0]",left,stim/gold_coin.png,silver,,,,,training,,,gold,val,,,,,0.0,0.0,0.0,0.0,0.0,0.0,0.0,0.0,,,,,,,,,0.0,training_resp,,12.016962761059403,5.998100651660934,0.0,,left,gold,0.0,261.0,2.0,right,2023_Nov_09_1806,habits_v_MRI,5.0,40.0,1.0,5.0,30.0,15.0,5.0,15.0,30.0,30.0,60.0,RR,59.87114969729606,
5.0,0.0,resp1,stim/left_resp_img.png,"[0.5, 0]",left,stim/gold_coin.png,silver,,,,,training,,,gold,val,,,,,0.0,0.0,0.0,0.0,0.0,0.0,0.0,0.0,,,,,,,,,0.0,training_resp,,12.700461010681463,6.68153937230818,0.0,,left,gold,0.0,261.0,2.0,right,2023_Nov_09_1806,habits_v_MRI,5.0,40.0,1.0,5.0,30.0,15.0,5.0,15.0,30.0,30.0,60.0,RR,59.87114969729606,
5.0,0.0,resp1,stim/left_resp_img.png,"[0.5, 0]",left,stim/gold_coin.png,silver,,,,,training,,,gold,val,,,,,0.0,0.0,0.0,0.0,0.0,0.0,0.0,0.0,,,,,,,,,0.0,training_resp,,13.351431343937293,7.33213757770136,0.0,,left,gold,0.0,261.0,2.0,right,2023_Nov_09_1806,habits_v_MRI,5.0,40.0,1.0,5.0,30.0,15.0,5.0,15.0,30.0,30.0,60.0,RR,59.87114969729606,
5.0,0.0,resp1,stim/left_resp_img.png,"[0.5, 0]",left,stim/gold_coin.png,silver,,,,,training,,,gold,val,,,,,0.0,0.0,0.0,0.0,0.0,0.0,0.0,0.0,,,,,,,,,0.0,training_resp,,14.001047764671966,7.98158098384738,0.0,,left,gold,0.0,261.0,2.0,right,2023_Nov_09_1806,habits_v_MRI,5.0,40.0,1.0,5.0,30.0,15.0,5.0,15.0,30.0,30.0,60.0,RR,59.87114969729606,
5.0,0.0,resp1,stim/left_resp_img.png,"[0.5, 0]",left,stim/gold_coin.png,silver,,,,,training,,,gold,val,,,,,0.0,0.0,0.0,0.0,0.0,0.0,0.0,0.0,,,,,,,,,0.0,training_resp,,14.650103500811383,8.631253707688302,0.0,,left,gold,0.0,261.0,2.0,right,2023_Nov_09_1806,habits_v_MRI,5.0,40.0,1.0,5.0,30.0,15.0,5.0,15.0,30.0,30.0,60.0,RR,59.87114969729606,
5.0,0.0,resp1,stim/left_resp_img.png,"[0.5, 0]",left,stim/gold_coin.png,silver,,,,,training,,,gold,val,,,,,0.0,0.0,0.0,0.0,0.0,0.0,0.0,0.0,,,,,,,,,0.0,training_resp,,15.33407006273046,9.314897993346676,0.0,,left,gold,0.0,261.0,2.0,right,2023_Nov_09_1806,habits_v_MRI,5.0,40.0,1.0,5.0,30.0,15.0,5.0,15.0,30.0,30.0,60.0,RR,59.87114969729606,
5.0,0.0,resp1,stim/left_resp_img.png,"[0.5, 0]",left,stim/gold_coin.png,silver,,,,,training,,,gold,val,,,,,0.0,0.0,0.0,0.0,0.0,0.0,0.0,0.0,,,,,,,,,0.0,training_resp,,15.984110809164122,9.964740799274296,0.0,13.0,left,gold,1.0,261.0,2.0,right,2023_Nov_09_1806,habits_v_MRI,5.0,40.0,1.0,5.0,30.0,15.0,5.0,15.0,30.0,30.0,60.0,RR,59.87114969729606,
5.0,0.0,resp1,stim/left_resp_img.png,"[0.5, 0]",left,stim/gold_coin.png,silver,,,,,training,,,gold,val,,,,,0.0,0.0,0.0,0.0,0.0,0.0,0.0,0.0,,,,,,,,,0.0,training_resp,,17.084110017400235,11.064724465366451,0.0,,left,gold,0.0,261.0,2.0,right,2023_Nov_09_1806,habits_v_MRI,5.0,40.0,1.0,5.0,30.0,15.0,5.0,15.0,30.0,30.0,60.0,RR,59.87114969729606,
5.0,0.0,resp1,stim/left_resp_img.png,"[0.5, 0]",left,stim/gold_coin.png,silver,,,,,training,,,gold,val,,,,,0.0,0.0,0.0,0.0,0.0,0.0,0.0,0.0,,,,,,,,,0.0,training_resp,,17.68409852217883,11.664641418494284,0.0,,left,gold,0.0,261.0,2.0,right,2023_Nov_09_1806,habits_v_MRI,5.0,40.0,1.0,5.0,30.0,15.0,5.0,15.0,30.0,30.0,60.0,RR,59.87114969729606,
5.0,0.0,resp1,stim/left_resp_img.png,"[0.5, 0]",left,stim/gold_coin.png,silver,,,,,training,,,gold,val,,,,,0.0,0.0,0.0,0.0,0.0,0.0,0.0,0.0,,,,,,,,,0.0,training_resp,,18.23405501921661,12.214628413086755,0.0,,left,gold,0.0,261.0,2.0,right,2023_Nov_09_1806,habits_v_MRI,5.0,40.0,1.0,5.0,30.0,15.0,5.0,15.0,30.0,30.0,60.0,RR,59.87114969729606,
5.0,0.0,resp1,stim/left_resp_img.png,"[0.5, 0]",left,stim/gold_coin.png,silver,,,,,training,,,gold,val,,,,,0.0,0.0,0.0,0.0,0.0,0.0,0.0,0.0,,,,,,,,,0.0,training_resp,,18.71729239798151,12.697926493361592,0.0,,left,gold,0.0,261.0,2.0,right,2023_Nov_09_1806,habits_v_MRI,5.0,40.0,1.0,5.0,30.0,15.0,5.0,15.0,30.0,30.0,60.0,RR,59.87114969729606,
5.0,0.0,resp1,stim/left_resp_img.png,"[0.5, 0]",left,stim/gold_coin.png,silver,,,,,training,,,gold,val,,,,,0.0,0.0,0.0,0.0,0.0,0.0,0.0,0.0,,,,,,,,,0.0,training_resp,,19.134062555618584,13.11461043707095,0.0,,left,gold,0.0,261.0,2.0,right,2023_Nov_09_1806,habits_v_MRI,5.0,40.0,1.0,5.0,30.0,15.0,5.0,15.0,30.0,30.0,60.0,RR,59.87114969729606,
5.0,0.0,resp1,stim/left_resp_img.png,"[0.5, 0]",left,stim/gold_coin.png,silver,,,,,training,,,gold,val,,,,,0.0,0.0,0.0,0.0,0.0,0.0,0.0,0.0,,,,,,,,,0.0,training_resp,,19.567033037310463,13.547833696007729,0.0,,left,gold,0.0,261.0,2.0,right,2023_Nov_09_1806,habits_v_MRI,5.0,40.0,1.0,5.0,30.0,15.0,5.0,15.0,30.0,30.0,60.0,RR,59.87114969729606,
5.0,0.0,resp1,stim/left_resp_img.png,"[0.5, 0]",left,stim/gold_coin.png,silver,,,,,training,,,gold,val,,,,,0.0,0.0,0.0,0.0,0.0,0.0,0.0,0.0,,,,,,,,,0.0,training_resp,,20.0340088037774,14.014494224218652,0.0,,left,gold,0.0,261.0,2.0,right,2023_Nov_09_1806,habits_v_MRI,5.0,40.0,1.0,5.0,30.0,15.0,5.0,15.0,30.0,30.0,60.0,RR,59.87114969729606,
5.0,0.0,resp1,stim/left_resp_img.png,"[0.5, 0]",left,stim/gold_coin.png,silver,,,,,training,,,gold,val,,,,,0.0,0.0,0.0,0.0,0.0,0.0,0.0,0.0,,,,,,,,,0.0,training_resp,,20.46657548705116,14.44763038912788,0.0,,left,gold,0.0,261.0,2.0,right,2023_Nov_09_1806,habits_v_MRI,5.0,40.0,1.0,5.0,30.0,15.0,5.0,15.0,30.0,30.0,60.0,RR,59.87114969729606,
5.0,0.0,resp1,stim/left_resp_img.png,"[0.5, 0]",left,stim/gold_coin.png,silver,,,,,training,,,gold,val,,,,,0.0,0.0,0.0,0.0,0.0,0.0,0.0,0.0,,,,,,,,,0.0,training_resp,,20.9001996119041,14.881076221121477,0.0,,left,gold,0.0,261.0,2.0,right,2023_Nov_09_1806,habits_v_MRI,5.0,40.0,1.0,5.0,30.0,15.0,5.0,15.0,30.0,30.0,60.0,RR,59.87114969729606,
5.0,0.0,resp1,stim/left_resp_img.png,"[0.5, 0]",left,stim/gold_coin.png,silver,,,,,training,,,gold,val,,,,,0.0,0.0,0.0,0.0,0.0,0.0,0.0,0.0,,,,,,,,,0.0,training_resp,,21.33378238929436,15.314365166937932,0.0,,left,gold,0.0,261.0,2.0,right,2023_Nov_09_1806,habits_v_MRI,5.0,40.0,1.0,5.0,30.0,15.0,5.0,15.0,30.0,30.0,60.0,RR,59.87114969729606,
5.0,0.0,resp1,stim/left_resp_img.png,"[0.5, 0]",left,stim/gold_coin.png,silver,,,,,training,,,gold,val,,,,,0.0,0.0,0.0,0.0,0.0,0.0,0.0,0.0,,,,,,,,,0.0,training_resp,,21.78400477161631,15.764784023631364,0.0,,left,gold,0.0,261.0,2.0,right,2023_Nov_09_1806,habits_v_MRI,5.0,40.0,1.0,5.0,30.0,15.0,5.0,15.0,30.0,30.0,60.0,RR,59.87114969729606,
5.0,0.0,resp1,stim/left_resp_img.png,"[0.5, 0]",left,stim/gold_coin.png,silver,,,,,training,,,gold,val,,,,,0.0,0.0,0.0,0.0,0.0,0.0,0.0,0.0,,,,,,,,,0.0,training_resp,,22.20022920030169,16.181008158950135,0.0,,left,gold,0.0,261.0,2.0,right,2023_Nov_09_1806,habits_v_MRI,5.0,40.0,1.0,5.0,30.0,15.0,5.0,15.0,30.0,30.0,60.0,RR,59.87114969729606,
5.0,0.0,resp1,stim/left_resp_img.png,"[0.5, 0]",left,stim/gold_coin.png,silver,,,,,training,,,gold,val,,,,,0.0,0.0,0.0,0.0,0.0,0.0,0.0,0.0,,,,,,,,,0.0,training_resp,,22.63379936828278,16.614312060177326,0.0,23.0,left,gold,1.0,261.0,2.0,right,2023_Nov_09_1806,habits_v_MRI,5.0,40.0,1.0,5.0,30.0,15.0,5.0,15.0,30.0,30.0,60.0,RR,59.87114969729606,
5.0,0.0,resp1,stim/left_resp_img.png,"[0.5, 0]",left,stim/gold_coin.png,silver,,,,,training,,,gold,val,,,,,0.0,0.0,0.0,0.0,0.0,0.0,0.0,0.0,,,,,,,,,0.0,training_resp,,23.80030773137696,17.780906344298273,0.0,,left,gold,0.0,261.0,2.0,right,2023_Nov_09_1806,habits_v_MRI,5.0,40.0,1.0,5.0,30.0,15.0,5.0,15.0,30.0,30.0,60.0,RR,59.87114969729606,
5.0,0.0,resp1,stim/left_resp_img.png,"[0.5, 0]",left,stim/gold_coin.png,silver,,,,,training,,,gold,val,,,,,0.0,0.0,0.0,0.0,0.0,0.0,0.0,0.0,,,,,,,,,0.0,training_resp,,24.20007993862964,18.180881477193907,0.0,,left,gold,0.0,261.0,2.0,right,2023_Nov_09_1806,habits_v_MRI,5.0,40.0,1.0,5.0,30.0,15.0,5.0,15.0,30.0,30.0,60.0,RR,59.87114969729606,
5.0,0.0,resp1,stim/left_resp_img.png,"[0.5, 0]",left,stim/gold_coin.png,silver,,,,,training,,,gold,val,,,,,0.0,0.0,0.0,0.0,0.0,0.0,0.0,0.0,,,,,,,,,0.0,training_resp,,24.666757181752477,18.64743115846068,0.0,,left,gold,0.0,261.0,2.0,right,2023_Nov_09_1806,habits_v_MRI,5.0,40.0,1.0,5.0,30.0,15.0,5.0,15.0,30.0,30.0,60.0,RR,59.87114969729606,
5.0,0.0,resp1,stim/left_resp_img.png,"[0.5, 0]",left,stim/gold_coin.png,silver,,,,,training,,,gold,val,,,,,0.0,0.0,0.0,0.0,0.0,0.0,0.0,0.0,,,,,,,,,0.0,training_resp,,25.06680797180161,19.047447932185605,0.0,,left,gold,0.0,261.0,2.0,right,2023_Nov_09_1806,habits_v_MRI,5.0,40.0,1.0,5.0,30.0,15.0,5.0,15.0,30.0,30.0,60.0,RR,59.87114969729606,
5.0,0.0,resp1,stim/left_resp_img.png,"[0.5, 0]",left,stim/gold_coin.png,silver,,,,,training,,,gold,val,,,,,0.0,0.0,0.0,0.0,0.0,0.0,0.0,0.0,,,,,,,,,0.0,training_resp,,25.483472854364663,19.46411281498149,0.0,,left,gold,0.0,261.0,2.0,right,2023_Nov_09_1806,habits_v_MRI,5.0,40.0,1.0,5.0,30.0,15.0,5.0,15.0,30.0,30.0,60.0,RR,59.87114969729606,
5.0,0.0,resp1,stim/left_resp_img.png,"[0.5, 0]",left,stim/gold_coin.png,silver,,,,,training,,,gold,val,,,,,0.0,0.0,0.0,0.0,0.0,0.0,0.0,0.0,,,,,,,,,0.0,training_resp,,25.866908085532486,19.84745420748368,0.0,,left,gold,0.0,261.0,2.0,right,2023_Nov_09_1806,habits_v_MRI,5.0,40.0,1.0,5.0,30.0,15.0,5.0,15.0,30.0,30.0,60.0,RR,59.87114969729606,
5.0,0.0,resp1,stim/left_resp_img.png,"[0.5, 0]",left,stim/gold_coin.png,silver,,,,,training,,,gold,val,,,,,0.0,0.0,0.0,0.0,0.0,0.0,0.0,0.0,,,,,,,,,0.0,training_resp,,26.283450685208663,20.264054576400667,0.0,,left,gold,0.0,261.0,2.0,right,2023_Nov_09_1806,habits_v_MRI,5.0,40.0,1.0,5.0,30.0,15.0,5.0,15.0,30.0,30.0,60.0,RR,59.87114969729606,
5.0,0.0,resp1,stim/left_resp_img.png,"[0.5, 0]",left,stim/gold_coin.png,silver,,,,,training,,,gold,val,,,,,0.0,0.0,0.0,0.0,0.0,0.0,0.0,0.0,,,,,,,,,0.0,training_resp,,26.700027594342828,20.68075640802272,0.0,,left,gold,0.0,261.0,2.0,right,2023_Nov_09_1806,habits_v_MRI,5.0,40.0,1.0,5.0,30.0,15.0,5.0,15.0,30.0,30.0,60.0,RR,59.87114969729606,
5.0,0.0,resp1,stim/left_resp_img.png,"[0.5, 0]",left,stim/gold_coin.png,silver,,,,,training,,,gold,val,,,,,0.0,0.0,0.0,0.0,0.0,0.0,0.0,0.0,,,,,,,,,0.0,training_resp,,27.13290951610543,21.1138497593347,0.0,,left,gold,0.0,261.0,2.0,right,2023_Nov_09_1806,habits_v_MRI,5.0,40.0,1.0,5.0,30.0,15.0,5.0,15.0,30.0,30.0,60.0,RR,59.87114969729606,
5.0,0.0,resp1,stim/left_resp_img.png,"[0.5, 0]",left,stim/gold_coin.png,silver,,,,,training,,,gold,val,,,,,0.0,0.0,0.0,0.0,0.0,0.0,0.0,0.0,,,,,,,,,0.0,training_resp,,27.5332163090352,21.513927527936172,0.0,,left,gold,0.0,261.0,2.0,right,2023_Nov_09_1806,habits_v_MRI,5.0,40.0,1.0,5.0,30.0,15.0,5.0,15.0,30.0,30.0,60.0,RR,59.87114969729606,
5.0,0.0,resp1,stim/left_resp_img.png,"[0.5, 0]",left,stim/gold_coin.png,silver,,,,,training,,,gold,val,,,,,0.0,0.0,0.0,0.0,0.0,0.0,0.0,0.0,,,,,,,,,0.0,training_resp,,27.950678231893107,21.93110588286072,0.0,,left,gold,0.0,261.0,2.0,right,2023_Nov_09_1806,habits_v_MRI,5.0,40.0,1.0,5.0,30.0,15.0,5.0,15.0,30.0,30.0,60.0,RR,59.87114969729606,
5.0,0.0,resp1,stim/left_resp_img.png,"[0.5, 0]",left,stim/gold_coin.png,silver,,,,,training,,,gold,val,,,,,0.0,0.0,0.0,0.0,0.0,0.0,0.0,0.0,,,,,,,,,0.0,training_resp,,28.349878317909315,22.3306314710062,0.0,,left,gold,0.0,261.0,2.0,right,2023_Nov_09_1806,habits_v_MRI,5.0,40.0,1.0,5.0,30.0,15.0,5.0,15.0,30.0,30.0,60.0,RR,59.87114969729606,
5.0,0.0,resp1,stim/left_resp_img.png,"[0.5, 0]",left,stim/gold_coin.png,silver,,,,,training,,,gold,val,,,,,0.0,0.0,0.0,0.0,0.0,0.0,0.0,0.0,,,,,,,,,0.0,training_resp,,28.78325758338906,22.76406264072284,0.0,,left,gold,0.0,261.0,2.0,right,2023_Nov_09_1806,habits_v_MRI,5.0,40.0,1.0,5.0,30.0,15.0,5.0,15.0,30.0,30.0,60.0,RR,59.87114969729606,
5.0,0.0,resp1,stim/left_resp_img.png,"[0.5, 0]",left,stim/gold_coin.png,silver,,,,,training,,,gold,val,,,,,0.0,0.0,0.0,0.0,0.0,0.0,0.0,0.0,,,,,,,,,0.0,training_resp,,29.199935662094504,23.180511695099995,0.0,,left,gold,0.0,261.0,2.0,right,2023_Nov_09_1806,habits_v_MRI,5.0,40.0,1.0,5.0,30.0,15.0,5.0,15.0,30.0,30.0,60.0,RR,59.87114969729606,
5.0,0.0,resp1,stim/left_resp_img.png,"[0.5, 0]",left,stim/gold_coin.png,silver,,,,,training,,,gold,val,,,,,0.0,0.0,0.0,0.0,0.0,0.0,0.0,0.0,,,,,,,,,0.0,training_resp,,29.649894417030737,23.63050681259483,0.0,,left,gold,0.0,261.0,2.0,right,2023_Nov_09_1806,habits_v_MRI,5.0,40.0,1.0,5.0,30.0,15.0,5.0,15.0,30.0,30.0,60.0,RR,59.87114969729606,
5.0,0.0,resp1,stim/left_resp_img.png,"[0.5, 0]",left,stim/gold_coin.png,silver,,,,,training,,,gold,val,,,,,0.0,0.0,0.0,0.0,0.0,0.0,0.0,0.0,,,,,,,,,0.0,training_resp,,30.11576904845424,24.09683304117061,0.0,,left,gold,0.0,261.0,2.0,right,2023_Nov_09_1806,habits_v_MRI,5.0,40.0,1.0,5.0,30.0,15.0,5.0,15.0,30.0,30.0,60.0,RR,59.87114969729606,
5.0,0.0,resp1,stim/left_resp_img.png,"[0.5, 0]",left,stim/gold_coin.png,silver,,,,,training,,,gold,val,,,,,0.0,0.0,0.0,0.0,0.0,0.0,0.0,0.0,,,,,,,,,0.0,training_resp,,30.61651755636558,24.597064265049998,0.0,,left,gold,0.0,261.0,2.0,right,2023_Nov_09_1806,habits_v_MRI,5.0,40.0,1.0,5.0,30.0,15.0,5.0,15.0,30.0,30.0,60.0,RR,59.87114969729606,
5.0,0.0,resp1,stim/left_resp_img.png,"[0.5, 0]",left,stim/gold_coin.png,silver,,,,,training,,,gold,val,,,,,0.0,0.0,0.0,0.0,0.0,0.0,0.0,0.0,,,,,,,,,0.0,training_resp,,31.09980097459629,25.08037759410217,0.0,,left,gold,0.0,261.0,2.0,right,2023_Nov_09_1806,habits_v_MRI,5.0,40.0,1.0,5.0,30.0,15.0,5.0,15.0,30.0,30.0,60.0,RR,59.87114969729606,
5.0,0.0,resp1,stim/left_resp_img.png,"[0.5, 0]",left,stim/gold_coin.png,silver,,,,,training,,,gold,val,,,,,0.0,0.0,0.0,0.0,0.0,0.0,0.0,0.0,,,,,,,,,0.0,training_resp,,31.58296005683951,25.563698840793226,0.0,,left,gold,0.0,261.0,2.0,right,2023_Nov_09_1806,habits_v_MRI,5.0,40.0,1.0,5.0,30.0,15.0,5.0,15.0,30.0,30.0,60.0,RR,59.87114969729606,
5.0,0.0,resp1,stim/left_resp_img.png,"[0.5, 0]",left,stim/gold_coin.png,silver,,,,,training,,,gold,val,,,,,0.0,0.0,0.0,0.0,0.0,0.0,0.0,0.0,,,,,,,,,0.0,training_resp,,32.13297930825502,26.11368378275074,0.0,,left,gold,0.0,261.0,2.0,right,2023_Nov_09_1806,habits_v_MRI,5.0,40.0,1.0,5.0,30.0,15.0,5.0,15.0,30.0,30.0,60.0,RR,59.87114969729606,
5.0,0.0,resp1,stim/left_resp_img.png,"[0.5, 0]",left,stim/gold_coin.png,silver,,,,,training,,,gold,val,,,,,0.0,0.0,0.0,0.0,0.0,0.0,0.0,0.0,,,,,,,,,0.0,training_resp,,32.88307497953065,26.86371200764552,0.0,,left,gold,0.0,261.0,2.0,right,2023_Nov_09_1806,habits_v_MRI,5.0,40.0,1.0,5.0,30.0,15.0,5.0,15.0,30.0,30.0,60.0,RR,59.87114969729606,
5.0,0.0,resp1,stim/left_resp_img.png,"[0.5, 0]",left,stim/gold_coin.png,silver,,,,,training,,,gold,val,,,,,0.0,0.0,0.0,0.0,0.0,0.0,0.0,0.0,,,,,,,,,0.0,training_resp,,33.315683303633705,27.296754627488557,0.0,,left,gold,0.0,261.0,2.0,right,2023_Nov_09_1806,habits_v_MRI,5.0,40.0,1.0,5.0,30.0,15.0,5.0,15.0,30.0,30.0,60.0,RR,59.87114969729606,
5.0,0.0,resp1,stim/left_resp_img.png,"[0.5, 0]",left,stim/gold_coin.png,silver,,,,,training,,,gold,val,,,,,0.0,0.0,0.0,0.0,0.0,0.0,0.0,0.0,,,,,,,,,0.0,training_resp,,33.79964968957938,27.78023686585948,0.0,13.0,left,gold,1.0,261.0,2.0,right,2023_Nov_09_1806,habits_v_MRI,5.0,40.0,1.0,5.0,30.0,15.0,5.0,15.0,30.0,30.0,60.0,RR,59.87114969729606,
5.0,0.0,resp1,stim/left_resp_img.png,"[0.5, 0]",left,stim/gold_coin.png,silver,,,,,training,,,gold,val,,,,,0.0,0.0,0.0,0.0,0.0,0.0,0.0,0.0,,,,,,,,,0.0,training_resp,,34.8667248073034,28.84715539077297,0.0,,left,gold,0.0,261.0,2.0,right,2023_Nov_09_1806,habits_v_MRI,5.0,40.0,1.0,5.0,30.0,15.0,5.0,15.0,30.0,30.0,60.0,RR,59.87114969729606,
5.0,0.0,resp1,stim/left_resp_img.png,"[0.5, 0]",left,stim/gold_coin.png,silver,,,,,training,,,gold,val,,,,,0.0,0.0,0.0,0.0,0.0,0.0,0.0,0.0,,,,,,,,,0.0,training_resp,,35.23293071775697,29.21345807192847,0.0,,left,gold,0.0,261.0,2.0,right,2023_Nov_09_1806,habits_v_MRI,5.0,40.0,1.0,5.0,30.0,15.0,5.0,15.0,30.0,30.0,60.0,RR,59.87114969729606,
5.0,0.0,resp1,stim/left_resp_img.png,"[0.5, 0]",left,stim/gold_coin.png,silver,,,,,training,,,gold,val,,,,,0.0,0.0,0.0,0.0,0.0,0.0,0.0,0.0,,,,,,,,,0.0,training_resp,,35.54928408609703,29.53008327865973,0.0,,left,gold,0.0,261.0,2.0,right,2023_Nov_09_1806,habits_v_MRI,5.0,40.0,1.0,5.0,30.0,15.0,5.0,15.0,30.0,30.0,60.0,RR,59.87114969729606,
5.0,0.0,resp1,stim/left_resp_img.png,"[0.5, 0]",left,stim/gold_coin.png,silver,,,,,training,,,gold,val,,,,,0.0,0.0,0.0,0.0,0.0,0.0,0.0,0.0,,,,,,,,,0.0,training_resp,,35.88340957229957,29.863851299043745,0.0,,left,gold,0.0,261.0,2.0,right,2023_Nov_09_1806,habits_v_MRI,5.0,40.0,1.0,5.0,30.0,15.0,5.0,15.0,30.0,30.0,60.0,RR,59.87114969729606,
5.0,0.0,resp1,stim/left_resp_img.png,"[0.5, 0]",left,stim/gold_coin.png,silver,,,,,training,,,gold,val,,,,,0.0,0.0,0.0,0.0,0.0,0.0,0.0,0.0,,,,,,,,,0.0,training_resp,,36.24946094234474,30.23000530479476,0.0,,left,gold,0.0,261.0,2.0,right,2023_Nov_09_1806,habits_v_MRI,5.0,40.0,1.0,5.0,30.0,15.0,5.0,15.0,30.0,30.0,60.0,RR,59.87114969729606,
5.0,0.0,resp1,stim/left_resp_img.png,"[0.5, 0]",left,stim/gold_coin.png,silver,,,,,training,,,gold,val,,,,,0.0,0.0,0.0,0.0,0.0,0.0,0.0,0.0,,,,,,,,,0.0,training_resp,,36.61593311908655,30.596651375992224,0.0,,left,gold,0.0,261.0,2.0,right,2023_Nov_09_1806,habits_v_MRI,5.0,40.0,1.0,5.0,30.0,15.0,5.0,15.0,30.0,30.0,60.0,RR,59.87114969729606,
5.0,0.0,resp1,stim/left_resp_img.png,"[0.5, 0]",left,stim/gold_coin.png,silver,,,,,training,,,gold,val,,,,,0.0,0.0,0.0,0.0,0.0,0.0,0.0,0.0,,,,,,,,,0.0,training_resp,,36.999682122375816,30.98020771727897,0.0,,left,gold,0.0,261.0,2.0,right,2023_Nov_09_1806,habits_v_MRI,5.0,40.0,1.0,5.0,30.0,15.0,5.0,15.0,30.0,30.0,60.0,RR,59.87114969729606,
5.0,0.0,resp1,stim/left_resp_img.png,"[0.5, 0]",left,stim/gold_coin.png,silver,,,,,training,,,gold,val,,,,,0.0,0.0,0.0,0.0,0.0,0.0,0.0,0.0,,,,,,,,,0.0,training_resp,,37.41589511441998,31.39661864982918,0.0,,left,gold,0.0,261.0,2.0,right,2023_Nov_09_1806,habits_v_MRI,5.0,40.0,1.0,5.0,30.0,15.0,5.0,15.0,30.0,30.0,60.0,RR,59.87114969729606,
5.0,0.0,resp1,stim/left_resp_img.png,"[0.5, 0]",left,stim/gold_coin.png,silver,,,,,training,,,gold,val,,,,,0.0,0.0,0.0,0.0,0.0,0.0,0.0,0.0,,,,,,,,,0.0,training_resp,,37.832527740392834,31.81327062961645,0.0,,left,gold,0.0,261.0,2.0,right,2023_Nov_09_1806,habits_v_MRI,5.0,40.0,1.0,5.0,30.0,15.0,5.0,15.0,30.0,30.0,60.0,RR,59.87114969729606,
5.0,0.0,resp1,stim/left_resp_img.png,"[0.5, 0]",left,stim/gold_coin.png,silver,,,,,training,,,gold,val,,,,,0.0,0.0,0.0,0.0,0.0,0.0,0.0,0.0,,,,,,,,,0.0,training_resp,,38.265911110909656,32.24661675840616,0.0,,left,gold,0.0,261.0,2.0,right,2023_Nov_09_1806,habits_v_MRI,5.0,40.0,1.0,5.0,30.0,15.0,5.0,15.0,30.0,30.0,60.0,RR,59.87114969729606,
5.0,0.0,resp1,stim/left_resp_img.png,"[0.5, 0]",left,stim/gold_coin.png,silver,,,,,training,,,gold,val,,,,,0.0,0.0,0.0,0.0,0.0,0.0,0.0,0.0,,,,,,,,,0.0,training_resp,,38.68256279779598,32.663157598348334,0.0,,left,gold,0.0,261.0,2.0,right,2023_Nov_09_1806,habits_v_MRI,5.0,40.0,1.0,5.0,30.0,15.0,5.0,15.0,30.0,30.0,60.0,RR,59.87114969729606,
5.0,0.0,resp1,stim/left_resp_img.png,"[0.5, 0]",left,stim/gold_coin.png,silver,,,,,training,,,gold,val,,,,,0.0,0.0,0.0,0.0,0.0,0.0,0.0,0.0,,,,,,,,,0.0,training_resp,,39.06580008845776,33.046538872411475,0.0,,left,gold,0.0,261.0,2.0,right,2023_Nov_09_1806,habits_v_MRI,5.0,40.0,1.0,5.0,30.0,15.0,5.0,15.0,30.0,30.0,60.0,RR,59.87114969729606,
5.0,0.0,resp1,stim/left_resp_img.png,"[0.5, 0]",left,stim/gold_coin.png,silver,,,,,training,,,gold,val,,,,,0.0,0.0,0.0,0.0,0.0,0.0,0.0,0.0,,,,,,,,,0.0,training_resp,,39.46648164861836,33.44695856468752,0.0,14.0,left,gold,1.0,261.0,2.0,right,2023_Nov_09_1806,habits_v_MRI,5.0,40.0,1.0,5.0,30.0,15.0,5.0,15.0,30.0,30.0,60.0,RR,59.87114969729606,
5.0,0.0,resp1,stim/left_resp_img.png,"[0.5, 0]",left,stim/gold_coin.png,silver,,,,,training,,,gold,val,,,,,0.0,0.0,0.0,0.0,0.0,0.0,0.0,0.0,,,,,,,,,0.0,training_resp,,40.39902384579182,34.37977084075101,0.0,,left,gold,0.0,261.0,2.0,right,2023_Nov_09_1806,habits_v_MRI,5.0,40.0,1.0,5.0,30.0,15.0,5.0,15.0,30.0,30.0,60.0,RR,59.87114969729606,
5.0,0.0,resp1,stim/left_resp_img.png,"[0.5, 0]",left,stim/gold_coin.png,silver,,,,,training,,,gold,val,,,,,0.0,0.0,0.0,0.0,0.0,0.0,0.0,0.0,,,,,,,,,0.0,training_resp,,40.76638924703002,34.74680604808964,0.0,,left,gold,0.0,261.0,2.0,right,2023_Nov_09_1806,habits_v_MRI,5.0,40.0,1.0,5.0,30.0,15.0,5.0,15.0,30.0,30.0,60.0,RR,59.87114969729606,
5.0,0.0,resp1,stim/left_resp_img.png,"[0.5, 0]",left,stim/gold_coin.png,silver,,,,,training,,,gold,val,,,,,0.0,0.0,0.0,0.0,0.0,0.0,0.0,0.0,,,,,,,,,0.0,training_resp,,41.13185295416042,35.112868561409414,0.0,,left,gold,0.0,261.0,2.0,right,2023_Nov_09_1806,habits_v_MRI,5.0,40.0,1.0,5.0,30.0,15.0,5.0,15.0,30.0,30.0,60.0,RR,59.87114969729606,
5.0,0.0,resp1,stim/left_resp_img.png,"[0.5, 0]",left,stim/gold_coin.png,silver,,,,,training,,,gold,val,,,,,0.0,0.0,0.0,0.0,0.0,0.0,0.0,0.0,,,,,,,,,0.0,training_resp,,41.49902246752754,35.479675330687314,0.0,,left,gold,0.0,261.0,2.0,right,2023_Nov_09_1806,habits_v_MRI,5.0,40.0,1.0,5.0,30.0,15.0,5.0,15.0,30.0,30.0,60.0,RR,59.87114969729606,
5.0,0.0,resp1,stim/left_resp_img.png,"[0.5, 0]",left,stim/gold_coin.png,silver,,,,,training,,,gold,val,,,,,0.0,0.0,0.0,0.0,0.0,0.0,0.0,0.0,,,,,,,,,0.0,training_resp,,41.86568847927265,35.84626803128049,0.0,,left,gold,0.0,261.0,2.0,right,2023_Nov_09_1806,habits_v_MRI,5.0,40.0,1.0,5.0,30.0,15.0,5.0,15.0,30.0,30.0,60.0,RR,59.87114969729606,
5.0,0.0,resp1,stim/left_resp_img.png,"[0.5, 0]",left,stim/gold_coin.png,silver,,,,,training,,,gold,val,,,,,0.0,0.0,0.0,0.0,0.0,0.0,0.0,0.0,,,,,,,,,0.0,training_resp,,42.19905240787193,36.17964720865712,0.0,,left,gold,0.0,261.0,2.0,right,2023_Nov_09_1806,habits_v_MRI,5.0,40.0,1.0,5.0,30.0,15.0,5.0,15.0,30.0,30.0,60.0,RR,59.87114969729606,
5.0,0.0,resp1,stim/left_resp_img.png,"[0.5, 0]",left,stim/gold_coin.png,silver,,,,,training,,,gold,val,,,,,0.0,0.0,0.0,0.0,0.0,0.0,0.0,0.0,,,,,,,,,0.0,training_resp,,42.56590726948343,36.546278324211016,0.0,,left,gold,0.0,261.0,2.0,right,2023_Nov_09_1806,habits_v_MRI,5.0,40.0,1.0,5.0,30.0,15.0,5.0,15.0,30.0,30.0,60.0,RR,59.87114969729606,
5.0,0.0,resp1,stim/left_resp_img.png,"[0.5, 0]",left,stim/gold_coin.png,silver,,,,,training,,,gold,val,,,,,0.0,0.0,0.0,0.0,0.0,0.0,0.0,0.0,,,,,,,,,0.0,training_resp,,42.94892169395462,36.92961913044565,0.0,,left,gold,0.0,261.0,2.0,right,2023_Nov_09_1806,habits_v_MRI,5.0,40.0,1.0,5.0,30.0,15.0,5.0,15.0,30.0,30.0,60.0,RR,59.87114969729606,
5.0,0.0,resp1,stim/left_resp_img.png,"[0.5, 0]",left,stim/gold_coin.png,silver,,,,,training,,,gold,val,,,,,0.0,0.0,0.0,0.0,0.0,0.0,0.0,0.0,,,,,,,,,0.0,training_resp,,43.31565544521436,37.29640801181085,0.0,,left,gold,0.0,261.0,2.0,right,2023_Nov_09_1806,habits_v_MRI,5.0,40.0,1.0,5.0,30.0,15.0,5.0,15.0,30.0,30.0,60.0,RR,59.87114969729606,
5.0,0.0,resp1,stim/left_resp_img.png,"[0.5, 0]",left,stim/gold_coin.png,silver,,,,,training,,,gold,val,,,,,0.0,0.0,0.0,0.0,0.0,0.0,0.0,0.0,,,,,,,,,0.0,training_resp,,43.68324195337482,37.6631836972665,0.0,,left,gold,0.0,261.0,2.0,right,2023_Nov_09_1806,habits_v_MRI,5.0,40.0,1.0,5.0,30.0,15.0,5.0,15.0,30.0,30.0,60.0,RR,59.87114969729606,
5.0,0.0,resp1,stim/left_resp_img.png,"[0.5, 0]",left,stim/gold_coin.png,silver,,,,,training,,,gold,val,,,,,0.0,0.0,0.0,0.0,0.0,0.0,0.0,0.0,,,,,,,,,0.0,training_resp,,44.04854789446108,38.0295626220759,0.0,,left,gold,0.0,261.0,2.0,right,2023_Nov_09_1806,habits_v_MRI,5.0,40.0,1.0,5.0,30.0,15.0,5.0,15.0,30.0,30.0,60.0,RR,59.87114969729606,
5.0,0.0,resp1,stim/left_resp_img.png,"[0.5, 0]",left,stim/gold_coin.png,silver,,,,,training,,,gold,val,,,,,0.0,0.0,0.0,0.0,0.0,0.0,0.0,0.0,,,,,,,,,0.0,training_resp,,44.43206435441971,38.412792581599206,0.0,,left,gold,0.0,261.0,2.0,right,2023_Nov_09_1806,habits_v_MRI,5.0,40.0,1.0,5.0,30.0,15.0,5.0,15.0,30.0,30.0,60.0,RR,59.87114969729606,
5.0,0.0,resp1,stim/left_resp_img.png,"[0.5, 0]",left,stim/gold_coin.png,silver,,,,,training,,,gold,val,,,,,0.0,0.0,0.0,0.0,0.0,0.0,0.0,0.0,,,,,,,,,0.0,training_resp,,44.79894120944664,38.77973189787008,0.0,,left,gold,0.0,261.0,2.0,right,2023_Nov_09_1806,habits_v_MRI,5.0,40.0,1.0,5.0,30.0,15.0,5.0,15.0,30.0,30.0,60.0,RR,59.87114969729606,
5.0,0.0,resp1,stim/left_resp_img.png,"[0.5, 0]",left,stim/gold_coin.png,silver,,,,,training,,,gold,val,,,,,0.0,0.0,0.0,0.0,0.0,0.0,0.0,0.0,,,,,,,,,0.0,training_resp,,45.16569695412181,39.14617064455524,0.0,14.0,left,gold,1.0,261.0,2.0,right,2023_Nov_09_1806,habits_v_MRI,5.0,40.0,1.0,5.0,30.0,15.0,5.0,15.0,30.0,30.0,60.0,RR,59.87114969729606,
5.0,0.0,resp1,stim/left_resp_img.png,"[0.5, 0]",left,stim/gold_coin.png,silver,,,,,training,,,gold,val,,,,,0.0,0.0,0.0,0.0,0.0,0.0,0.0,0.0,,,,,,,,,0.0,training_resp,,46.0815268214792,40.06257351278328,0.0,,left,gold,0.0,261.0,2.0,right,2023_Nov_09_1806,habits_v_MRI,5.0,40.0,1.0,5.0,30.0,15.0,5.0,15.0,30.0,30.0,60.0,RR,59.87114969729606,
5.0,0.0,resp1,stim/left_resp_img.png,"[0.5, 0]",left,stim/gold_coin.png,silver,,,,,training,,,gold,val,,,,,0.0,0.0,0.0,0.0,0.0,0.0,0.0,0.0,,,,,,,,,0.0,training_resp,,46.431905415607616,40.41271575144492,0.0,,left,gold,0.0,261.0,2.0,right,2023_Nov_09_1806,habits_v_MRI,5.0,40.0,1.0,5.0,30.0,15.0,5.0,15.0,30.0,30.0,60.0,RR,59.87114969729606,
5.0,0.0,resp1,stim/left_resp_img.png,"[0.5, 0]",left,stim/gold_coin.png,silver,,,,,training,,,gold,val,,,,,0.0,0.0,0.0,0.0,0.0,0.0,0.0,0.0,,,,,,,,,0.0,training_resp,,46.79874004330486,40.779336896725,0.0,,left,gold,0.0,261.0,2.0,right,2023_Nov_09_1806,habits_v_MRI,5.0,40.0,1.0,5.0,30.0,15.0,5.0,15.0,30.0,30.0,60.0,RR,59.87114969729606,
5.0,0.0,resp1,stim/left_resp_img.png,"[0.5, 0]",left,stim/gold_coin.png,silver,,,,,training,,,gold,val,,,,,0.0,0.0,0.0,0.0,0.0,0.0,0.0,0.0,,,,,,,,,0.0,training_resp,,47.14853713242337,41.1293157977052,0.0,,left,gold,0.0,261.0,2.0,right,2023_Nov_09_1806,habits_v_MRI,5.0,40.0,1.0,5.0,30.0,15.0,5.0,15.0,30.0,30.0,60.0,RR,59.87114969729606,
5.0,0.0,resp1,stim/left_resp_img.png,"[0.5, 0]",left,stim/gold_coin.png,silver,,,,,training,,,gold,val,,,,,0.0,0.0,0.0,0.0,0.0,0.0,0.0,0.0,,,,,,,,,0.0,training_resp,,47.48179490608163,41.46254424704239,0.0,,left,gold,0.0,261.0,2.0,right,2023_Nov_09_1806,habits_v_MRI,5.0,40.0,1.0,5.0,30.0,15.0,5.0,15.0,30.0,30.0,60.0,RR,59.87114969729606,
5.0,0.0,resp1,stim/left_resp_img.png,"[0.5, 0]",left,stim/gold_coin.png,silver,,,,,training,,,gold,val,,,,,0.0,0.0,0.0,0.0,0.0,0.0,0.0,0.0,,,,,,,,,0.0,training_resp,,47.84877087804489,41.8292873823084,0.0,,left,gold,0.0,261.0,2.0,right,2023_Nov_09_1806,habits_v_MRI,5.0,40.0,1.0,5.0,30.0,15.0,5.0,15.0,30.0,30.0,60.0,RR,59.87114969729606,
5.0,0.0,resp1,stim/left_resp_img.png,"[0.5, 0]",left,stim/gold_coin.png,silver,,,,,training,,,gold,val,,,,,0.0,0.0,0.0,0.0,0.0,0.0,0.0,0.0,,,,,,,,,0.0,training_resp,,48.21526768733747,42.19588888017461,0.0,,left,gold,0.0,261.0,2.0,right,2023_Nov_09_1806,habits_v_MRI,5.0,40.0,1.0,5.0,30.0,15.0,5.0,15.0,30.0,30.0,60.0,RR,59.87114969729606,
5.0,0.0,resp1,stim/left_resp_img.png,"[0.5, 0]",left,stim/gold_coin.png,silver,,,,,training,,,gold,val,,,,,0.0,0.0,0.0,0.0,0.0,0.0,0.0,0.0,,,,,,,,,0.0,training_resp,,48.5990014418494,42.579646680736914,0.0,,left,gold,0.0,261.0,2.0,right,2023_Nov_09_1806,habits_v_MRI,5.0,40.0,1.0,5.0,30.0,15.0,5.0,15.0,30.0,30.0,60.0,RR,59.87114969729606,
5.0,0.0,resp1,stim/left_resp_img.png,"[0.5, 0]",left,stim/gold_coin.png,silver,,,,,training,,,gold,val,,,,,0.0,0.0,0.0,0.0,0.0,0.0,0.0,0.0,,,,,,,,,0.0,training_resp,,48.98175223893486,42.96248017298058,0.0,,left,gold,0.0,261.0,2.0,right,2023_Nov_09_1806,habits_v_MRI,5.0,40.0,1.0,5.0,30.0,15.0,5.0,15.0,30.0,30.0,60.0,RR,59.87114969729606,
5.0,0.0,resp1,stim/left_resp_img.png,"[0.5, 0]",left,stim/gold_coin.png,silver,,,,,training,,,gold,val,,,,,0.0,0.0,0.0,0.0,0.0,0.0,0.0,0.0,,,,,,,,,0.0,training_resp,,49.365029997425154,43.34578725602478,0.0,,left,gold,0.0,261.0,2.0,right,2023_Nov_09_1806,habits_v_MRI,5.0,40.0,1.0,5.0,30.0,15.0,5.0,15.0,30.0,30.0,60.0,RR,59.87114969729606,
5.0,0.0,resp1,stim/left_resp_img.png,"[0.5, 0]",left,stim/gold_coin.png,silver,,,,,training,,,gold,val,,,,,0.0,0.0,0.0,0.0,0.0,0.0,0.0,0.0,,,,,,,,,0.0,training_resp,,49.83178905583918,43.812480041058734,0.0,,left,gold,0.0,261.0,2.0,right,2023_Nov_09_1806,habits_v_MRI,5.0,40.0,1.0,5.0,30.0,15.0,5.0,15.0,30.0,30.0,60.0,RR,59.87114969729606,
5.0,0.0,resp1,stim/left_resp_img.png,"[0.5, 0]",left,stim/gold_coin.png,silver,,,,,training,,,gold,val,,,,,0.0,0.0,0.0,0.0,0.0,0.0,0.0,0.0,,,,,,,,,0.0,training_resp,,50.23173750354909,44.2124692494981,0.0,,left,gold,0.0,261.0,2.0,right,2023_Nov_09_1806,habits_v_MRI,5.0,40.0,1.0,5.0,30.0,15.0,5.0,15.0,30.0,30.0,60.0,RR,59.87114969729606,
5.0,0.0,resp1,stim/left_resp_img.png,"[0.5, 0]",left,stim/gold_coin.png,silver,,,,,training,,,gold,val,,,,,0.0,0.0,0.0,0.0,0.0,0.0,0.0,0.0,,,,,,,,,0.0,training_resp,,50.59855893510394,44.579076905502006,0.0,,left,gold,0.0,261.0,2.0,right,2023_Nov_09_1806,habits_v_MRI,5.0,40.0,1.0,5.0,30.0,15.0,5.0,15.0,30.0,30.0,60.0,RR,59.87114969729606,
5.0,0.0,resp1,stim/left_resp_img.png,"[0.5, 0]",left,stim/gold_coin.png,silver,,,,,training,,,gold,val,,,,,0.0,0.0,0.0,0.0,0.0,0.0,0.0,0.0,,,,,,,,,0.0,ITI_start,21.666666666666668,50.74915582081303,44.72907087928616,,,,,,261.0,2.0,right,2023_Nov_09_1806,habits_v_MRI,5.0,40.0,1.0,5.0,30.0,15.0,5.0,15.0,30.0,30.0,60.0,RR,59.87114969729606,
5.0,1.0,resp2,stim/right_resp_img.png,"[-0.5, 0]",right,stim/silver_coin.png,silver,,,,,training,,,silver,deval,,,,,0.0,0.0,0.0,0.0,0.0,1.0,1.0,1.0,,,,,,,,,0.0,training_period_start,60.0,72.44926493731327,0.0,1.0,22.0,,,,261.0,2.0,right,2023_Nov_09_1806,habits_v_MRI,5.0,40.0,1.0,5.0,30.0,15.0,5.0,15.0,30.0,30.0,60.0,RR,59.87114969729606,
5.0,1.0,resp2,stim/right_resp_img.png,"[-0.5, 0]",right,stim/silver_coin.png,silver,,,,,training,,,silver,deval,,,,,0.0,0.0,0.0,0.0,0.0,1.0,1.0,1.0,,,,,,,,,0.0,training_resp,,73.2470437232405,0.8148638301063329,1.0,,right,silver,0.0,261.0,2.0,right,2023_Nov_09_1806,habits_v_MRI,5.0,40.0,1.0,5.0,30.0,15.0,5.0,15.0,30.0,30.0,60.0,RR,59.87114969729606,
5.0,1.0,resp2,stim/right_resp_img.png,"[-0.5, 0]",right,stim/silver_coin.png,silver,,,,,training,,,silver,deval,,,,,0.0,0.0,0.0,0.0,0.0,1.0,1.0,1.0,,,,,,,,,0.0,training_resp,,73.5966815801803,1.164771472569555,1.0,,right,silver,0.0,261.0,2.0,right,2023_Nov_09_1806,habits_v_MRI,5.0,40.0,1.0,5.0,30.0,15.0,5.0,15.0,30.0,30.0,60.0,RR,59.87114969729606,
5.0,1.0,resp2,stim/right_resp_img.png,"[-0.5, 0]",right,stim/silver_coin.png,silver,,,,,training,,,silver,deval,,,,,0.0,0.0,0.0,0.0,0.0,1.0,1.0,1.0,,,,,,,,,0.0,training_resp,,73.93039359059185,1.498124551260844,1.0,,right,silver,0.0,261.0,2.0,right,2023_Nov_09_1806,habits_v_MRI,5.0,40.0,1.0,5.0,30.0,15.0,5.0,15.0,30.0,30.0,60.0,RR,59.87114969729606,
5.0,1.0,resp2,stim/right_resp_img.png,"[-0.5, 0]",right,stim/silver_coin.png,silver,,,,,training,,,silver,deval,,,,,0.0,0.0,0.0,0.0,0.0,1.0,1.0,1.0,,,,,,,,,0.0,training_resp,,74.24668918992393,1.814725125208497,1.0,,right,silver,0.0,261.0,2.0,right,2023_Nov_09_1806,habits_v_MRI,5.0,40.0,1.0,5.0,30.0,15.0,5.0,15.0,30.0,30.0,60.0,RR,59.87114969729606,
5.0,1.0,resp2,stim/right_resp_img.png,"[-0.5, 0]",right,stim/silver_coin.png,silver,,,,,training,,,silver,deval,,,,,0.0,0.0,0.0,0.0,0.0,1.0,1.0,1.0,,,,,,,,,0.0,training_resp,,74.57995693408884,2.148105475585908,1.0,,right,silver,0.0,261.0,2.0,right,2023_Nov_09_1806,habits_v_MRI,5.0,40.0,1.0,5.0,30.0,15.0,5.0,15.0,30.0,30.0,60.0,RR,59.87114969729606,
5.0,1.0,resp2,stim/right_resp_img.png,"[-0.5, 0]",right,stim/silver_coin.png,silver,,,,,training,,,silver,deval,,,,,0.0,0.0,0.0,0.0,0.0,1.0,1.0,1.0,,,,,,,,,0.0,training_resp,,74.88012552075088,2.44802509713918,1.0,,right,silver,0.0,261.0,2.0,right,2023_Nov_09_1806,habits_v_MRI,5.0,40.0,1.0,5.0,30.0,15.0,5.0,15.0,30.0,30.0,60.0,RR,59.87114969729606,
5.0,1.0,resp2,stim/right_resp_img.png,"[-0.5, 0]",right,stim/silver_coin.png,silver,,,,,training,,,silver,deval,,,,,0.0,0.0,0.0,0.0,0.0,1.0,1.0,1.0,,,,,,,,,0.0,training_resp,,75.18007534649223,2.748028293484822,1.0,,right,silver,0.0,261.0,2.0,right,2023_Nov_09_1806,habits_v_MRI,5.0,40.0,1.0,5.0,30.0,15.0,5.0,15.0,30.0,30.0,60.0,RR,59.87114969729606,
5.0,1.0,resp2,stim/right_resp_img.png,"[-0.5, 0]",right,stim/silver_coin.png,silver,,,,,training,,,silver,deval,,,,,0.0,0.0,0.0,0.0,0.0,1.0,1.0,1.0,,,,,,,,,0.0,training_resp,,75.49716358701698,3.065049967495725,1.0,,right,silver,0.0,261.0,2.0,right,2023_Nov_09_1806,habits_v_MRI,5.0,40.0,1.0,5.0,30.0,15.0,5.0,15.0,30.0,30.0,60.0,RR,59.87114969729606,
5.0,1.0,resp2,stim/right_resp_img.png,"[-0.5, 0]",right,stim/silver_coin.png,silver,,,,,training,,,silver,deval,,,,,0.0,0.0,0.0,0.0,0.0,1.0,1.0,1.0,,,,,,,,,0.0,training_resp,,75.7962641750928,3.364623266505077,1.0,,right,silver,0.0,261.0,2.0,right,2023_Nov_09_1806,habits_v_MRI,5.0,40.0,1.0,5.0,30.0,15.0,5.0,15.0,30.0,30.0,60.0,RR,59.87114969729606,
5.0,1.0,resp2,stim/right_resp_img.png,"[-0.5, 0]",right,stim/silver_coin.png,silver,,,,,training,,,silver,deval,,,,,0.0,0.0,0.0,0.0,0.0,1.0,1.0,1.0,,,,,,,,,0.0,training_resp,,76.16342870355584,3.731301008258015,1.0,,right,silver,0.0,261.0,2.0,right,2023_Nov_09_1806,habits_v_MRI,5.0,40.0,1.0,5.0,30.0,15.0,5.0,15.0,30.0,30.0,60.0,RR,59.87114969729606,
5.0,1.0,resp2,stim/right_resp_img.png,"[-0.5, 0]",right,stim/silver_coin.png,silver,,,,,training,,,silver,deval,,,,,0.0,0.0,0.0,0.0,0.0,1.0,1.0,1.0,,,,,,,,,0.0,training_resp,,76.49653047090396,4.06463092030026,1.0,,right,silver,0.0,261.0,2.0,right,2023_Nov_09_1806,habits_v_MRI,5.0,40.0,1.0,5.0,30.0,15.0,5.0,15.0,30.0,30.0,60.0,RR,59.87114969729606,
5.0,1.0,resp2,stim/right_resp_img.png,"[-0.5, 0]",right,stim/silver_coin.png,silver,,,,,training,,,silver,deval,,,,,0.0,0.0,0.0,0.0,0.0,1.0,1.0,1.0,,,,,,,,,0.0,training_resp,,76.81336358841509,4.38122093770653,1.0,,right,silver,0.0,261.0,2.0,right,2023_Nov_09_1806,habits_v_MRI,5.0,40.0,1.0,5.0,30.0,15.0,5.0,15.0,30.0,30.0,60.0,RR,59.87114969729606,
5.0,1.0,resp2,stim/right_resp_img.png,"[-0.5, 0]",right,stim/silver_coin.png,silver,,,,,training,,,silver,deval,,,,,0.0,0.0,0.0,0.0,0.0,1.0,1.0,1.0,,,,,,,,,0.0,training_resp,,77.14713571406901,4.714933827752248,1.0,,right,silver,0.0,261.0,2.0,right,2023_Nov_09_1806,habits_v_MRI,5.0,40.0,1.0,5.0,30.0,15.0,5.0,15.0,30.0,30.0,60.0,RR,59.87114969729606,
5.0,1.0,resp2,stim/right_resp_img.png,"[-0.5, 0]",right,stim/silver_coin.png,silver,,,,,training,,,silver,deval,,,,,0.0,0.0,0.0,0.0,0.0,1.0,1.0,1.0,,,,,,,,,0.0,training_resp,,77.46294159418903,5.031216230941936,1.0,,right,silver,0.0,261.0,2.0,right,2023_Nov_09_1806,habits_v_MRI,5.0,40.0,1.0,5.0,30.0,15.0,5.0,15.0,30.0,30.0,60.0,RR,59.87114969729606,
5.0,1.0,resp2,stim/right_resp_img.png,"[-0.5, 0]",right,stim/silver_coin.png,silver,,,,,training,,,silver,deval,,,,,0.0,0.0,0.0,0.0,0.0,1.0,1.0,1.0,,,,,,,,,0.0,training_resp,,77.87952788709663,5.447772319894284,1.0,,right,silver,0.0,261.0,2.0,right,2023_Nov_09_1806,habits_v_MRI,5.0,40.0,1.0,5.0,30.0,15.0,5.0,15.0,30.0,30.0,60.0,RR,59.87114969729606,
5.0,1.0,resp2,stim/right_resp_img.png,"[-0.5, 0]",right,stim/silver_coin.png,silver,,,,,training,,,silver,deval,,,,,0.0,0.0,0.0,0.0,0.0,1.0,1.0,1.0,,,,,,,,,0.0,training_resp,,78.24650649819523,5.814536275342107,1.0,,right,silver,0.0,261.0,2.0,right,2023_Nov_09_1806,habits_v_MRI,5.0,40.0,1.0,5.0,30.0,15.0,5.0,15.0,30.0,30.0,60.0,RR,59.87114969729606,
5.0,1.0,resp2,stim/right_resp_img.png,"[-0.5, 0]",right,stim/silver_coin.png,silver,,,,,training,,,silver,deval,,,,,0.0,0.0,0.0,0.0,0.0,1.0,1.0,1.0,,,,,,,,,0.0,training_resp,,78.61317984107882,6.181182933039963,1.0,,right,silver,0.0,261.0,2.0,right,2023_Nov_09_1806,habits_v_MRI,5.0,40.0,1.0,5.0,30.0,15.0,5.0,15.0,30.0,30.0,60.0,RR,59.87114969729606,
5.0,1.0,resp2,stim/right_resp_img.png,"[-0.5, 0]",right,stim/silver_coin.png,silver,,,,,training,,,silver,deval,,,,,0.0,0.0,0.0,0.0,0.0,1.0,1.0,1.0,,,,,,,,,0.0,training_resp,,78.96315844892524,6.531316081061959,1.0,,right,silver,0.0,261.0,2.0,right,2023_Nov_09_1806,habits_v_MRI,5.0,40.0,1.0,5.0,30.0,15.0,5.0,15.0,30.0,30.0,60.0,RR,59.87114969729606,
5.0,1.0,resp2,stim/right_resp_img.png,"[-0.5, 0]",right,stim/silver_coin.png,silver,,,,,training,,,silver,deval,,,,,0.0,0.0,0.0,0.0,0.0,1.0,1.0,1.0,,,,,,,,,0.0,training_resp,,79.34653591061942,6.9146431046538055,1.0,,right,silver,0.0,261.0,2.0,right,2023_Nov_09_1806,habits_v_MRI,5.0,40.0,1.0,5.0,30.0,15.0,5.0,15.0,30.0,30.0,60.0,RR,59.87114969729606,
5.0,1.0,resp2,stim/right_resp_img.png,"[-0.5, 0]",right,stim/silver_coin.png,silver,,,,,training,,,silver,deval,,,,,0.0,0.0,0.0,0.0,0.0,1.0,1.0,1.0,,,,,,,,,0.0,training_resp,,80.04644356784411,7.614579793065786,1.0,,right,silver,0.0,261.0,2.0,right,2023_Nov_09_1806,habits_v_MRI,5.0,40.0,1.0,5.0,30.0,15.0,5.0,15.0,30.0,30.0,60.0,RR,59.87114969729606,
5.0,1.0,resp2,stim/right_resp_img.png,"[-0.5, 0]",right,stim/silver_coin.png,silver,,,,,training,,,silver,deval,,,,,0.0,0.0,0.0,0.0,0.0,1.0,1.0,1.0,,,,,,,,,0.0,training_resp,,80.46305683953688,8.031054066494107,1.0,,right,silver,0.0,261.0,2.0,right,2023_Nov_09_1806,habits_v_MRI,5.0,40.0,1.0,5.0,30.0,15.0,5.0,15.0,30.0,30.0,60.0,RR,59.87114969729606,
5.0,1.0,resp2,stim/right_resp_img.png,"[-0.5, 0]",right,stim/silver_coin.png,silver,,,,,training,,,silver,deval,,,,,0.0,0.0,0.0,0.0,0.0,1.0,1.0,1.0,,,,,,,,,0.0,training_resp,,80.81312957894988,8.381037072977051,1.0,13.0,right,silver,1.0,261.0,2.0,right,2023_Nov_09_1806,habits_v_MRI,5.0,40.0,1.0,5.0,30.0,15.0,5.0,15.0,30.0,30.0,60.0,RR,59.87114969729606,
5.0,1.0,resp2,stim/right_resp_img.png,"[-0.5, 0]",right,stim/silver_coin.png,silver,,,,,training,,,silver,deval,,,,,0.0,0.0,0.0,0.0,0.0,1.0,1.0,1.0,,,,,,,,,0.0,training_resp,,81.72953948494978,9.297563983825968,1.0,,right,silver,0.0,261.0,2.0,right,2023_Nov_09_1806,habits_v_MRI,5.0,40.0,1.0,5.0,30.0,15.0,5.0,15.0,30.0,30.0,60.0,RR,59.87114969729606,
5.0,1.0,resp2,stim/right_resp_img.png,"[-0.5, 0]",right,stim/silver_coin.png,silver,,,,,training,,,silver,deval,,,,,0.0,0.0,0.0,0.0,0.0,1.0,1.0,1.0,,,,,,,,,0.0,training_resp,,82.0290450444445,9.597497974522412,1.0,,right,silver,0.0,261.0,2.0,right,2023_Nov_09_1806,habits_v_MRI,5.0,40.0,1.0,5.0,30.0,15.0,5.0,15.0,30.0,30.0,60.0,RR,59.87114969729606,
5.0,1.0,resp2,stim/right_resp_img.png,"[-0.5, 0]",right,stim/silver_coin.png,silver,,,,,training,,,silver,deval,,,,,0.0,0.0,0.0,0.0,0.0,1.0,1.0,1.0,,,,,,,,,0.0,training_resp,,82.31287812115625,9.880887957755476,1.0,,right,silver,0.0,261.0,2.0,right,2023_Nov_09_1806,habits_v_MRI,5.0,40.0,1.0,5.0,30.0,15.0,5.0,15.0,30.0,30.0,60.0,RR,59.87114969729606,
5.0,1.0,resp2,stim/right_resp_img.png,"[-0.5, 0]",right,stim/silver_coin.png,silver,,,,,training,,,silver,deval,,,,,0.0,0.0,0.0,0.0,0.0,1.0,1.0,1.0,,,,,,,,,0.0,training_resp,,82.62944174651057,10.197538383537903,1.0,,right,silver,0.0,261.0,2.0,right,2023_Nov_09_1806,habits_v_MRI,5.0,40.0,1.0,5.0,30.0,15.0,5.0,15.0,30.0,30.0,60.0,RR,59.87114969729606,
5.0,1.0,resp2,stim/right_resp_img.png,"[-0.5, 0]",right,stim/silver_coin.png,silver,,,,,training,,,silver,deval,,,,,0.0,0.0,0.0,0.0,0.0,1.0,1.0,1.0,,,,,,,,,0.0,training_resp,,82.92948423768394,10.4975515503902,1.0,,right,silver,0.0,261.0,2.0,right,2023_Nov_09_1806,habits_v_MRI,5.0,40.0,1.0,5.0,30.0,15.0,5.0,15.0,30.0,30.0,60.0,RR,59.87114969729606,
5.0,1.0,resp2,stim/right_resp_img.png,"[-0.5, 0]",right,stim/silver_coin.png,silver,,,,,training,,,silver,deval,,,,,0.0,0.0,0.0,0.0,0.0,1.0,1.0,1.0,,,,,,,,,0.0,training_resp,,83.26265169214457,10.830779999727383,1.0,,right,silver,0.0,261.0,2.0,right,2023_Nov_09_1806,habits_v_MRI,5.0,40.0,1.0,5.0,30.0,15.0,5.0,15.0,30.0,30.0,60.0,RR,59.87114969729606,
5.0,1.0,resp2,stim/right_resp_img.png,"[-0.5, 0]",right,stim/silver_coin.png,silver,,,,,training,,,silver,deval,,,,,0.0,0.0,0.0,0.0,0.0,1.0,1.0,1.0,,,,,,,,,0.0,training_resp,,83.59623320843093,11.164174719015136,1.0,,right,silver,0.0,261.0,2.0,right,2023_Nov_09_1806,habits_v_MRI,5.0,40.0,1.0,5.0,30.0,15.0,5.0,15.0,30.0,30.0,60.0,RR,59.87114969729606,
5.0,1.0,resp2,stim/right_resp_img.png,"[-0.5, 0]",right,stim/silver_coin.png,silver,,,,,training,,,silver,deval,,,,,0.0,0.0,0.0,0.0,0.0,1.0,1.0,1.0,,,,,,,,,0.0,training_resp,,83.91279302141629,11.480743622640148,1.0,,right,silver,0.0,261.0,2.0,right,2023_Nov_09_1806,habits_v_MRI,5.0,40.0,1.0,5.0,30.0,15.0,5.0,15.0,30.0,30.0,60.0,RR,59.87114969729606,
5.0,1.0,resp2,stim/right_resp_img.png,"[-0.5, 0]",right,stim/silver_coin.png,silver,,,,,training,,,silver,deval,,,,,0.0,0.0,0.0,0.0,0.0,1.0,1.0,1.0,,,,,,,,,0.0,training_resp,,84.26287191919982,11.830744810169564,1.0,,right,silver,0.0,261.0,2.0,right,2023_Nov_09_1806,habits_v_MRI,5.0,40.0,1.0,5.0,30.0,15.0,5.0,15.0,30.0,30.0,60.0,RR,59.87114969729606,
5.0,1.0,resp2,stim/right_resp_img.png,"[-0.5, 0]",right,stim/silver_coin.png,silver,,,,,training,,,silver,deval,,,,,0.0,0.0,0.0,0.0,0.0,1.0,1.0,1.0,,,,,,,,,0.0,training_resp,,84.59604758443311,12.164074429078028,1.0,,right,silver,0.0,261.0,2.0,right,2023_Nov_09_1806,habits_v_MRI,5.0,40.0,1.0,5.0,30.0,15.0,5.0,15.0,30.0,30.0,60.0,RR,59.87114969729606,
5.0,1.0,resp2,stim/right_resp_img.png,"[-0.5, 0]",right,stim/silver_coin.png,silver,,,,,training,,,silver,deval,,,,,0.0,0.0,0.0,0.0,0.0,1.0,1.0,1.0,,,,,,,,,0.0,training_resp,,84.97924528690055,12.547336938790975,1.0,,right,silver,0.0,261.0,2.0,right,2023_Nov_09_1806,habits_v_MRI,5.0,40.0,1.0,5.0,30.0,15.0,5.0,15.0,30.0,30.0,60.0,RR,59.87114969729606,
5.0,1.0,resp2,stim/right_resp_img.png,"[-0.5, 0]",right,stim/silver_coin.png,silver,,,,,training,,,silver,deval,,,,,0.0,0.0,0.0,0.0,0.0,1.0,1.0,1.0,,,,,,,,,0.0,training_resp,,85.31257461267523,12.880692363251,1.0,,right,silver,0.0,261.0,2.0,right,2023_Nov_09_1806,habits_v_MRI,5.0,40.0,1.0,5.0,30.0,15.0,5.0,15.0,30.0,30.0,60.0,RR,59.87114969729606,
5.0,1.0,resp2,stim/right_resp_img.png,"[-0.5, 0]",right,stim/silver_coin.png,silver,,,,,training,,,silver,deval,,,,,0.0,0.0,0.0,0.0,0.0,1.0,1.0,1.0,,,,,,,,,0.0,training_resp,,85.64620686043054,13.214043975574896,1.0,17.0,right,silver,1.0,261.0,2.0,right,2023_Nov_09_1806,habits_v_MRI,5.0,40.0,1.0,5.0,30.0,15.0,5.0,15.0,30.0,30.0,60.0,RR,59.87114969729606,
5.0,1.0,resp2,stim/right_resp_img.png,"[-0.5, 0]",right,stim/silver_coin.png,silver,,,,,training,,,silver,deval,,,,,0.0,0.0,0.0,0.0,0.0,1.0,1.0,1.0,,,,,,,,,0.0,training_resp,,86.52928711823188,14.097325399750844,1.0,,right,silver,0.0,261.0,2.0,right,2023_Nov_09_1806,habits_v_MRI,5.0,40.0,1.0,5.0,30.0,15.0,5.0,15.0,30.0,30.0,60.0,RR,59.87114969729606,
5.0,1.0,resp2,stim/right_resp_img.png,"[-0.5, 0]",right,stim/silver_coin.png,silver,,,,,training,,,silver,deval,,,,,0.0,0.0,0.0,0.0,0.0,1.0,1.0,1.0,,,,,,,,,0.0,training_resp,,86.84600469726138,14.413952072616668,1.0,,right,silver,0.0,261.0,2.0,right,2023_Nov_09_1806,habits_v_MRI,5.0,40.0,1.0,5.0,30.0,15.0,5.0,15.0,30.0,30.0,60.0,RR,59.87114969729606,
5.0,1.0,resp2,stim/right_resp_img.png,"[-0.5, 0]",right,stim/silver_coin.png,silver,,,,,training,,,silver,deval,,,,,0.0,0.0,0.0,0.0,0.0,1.0,1.0,1.0,,,,,,,,,0.0,training_resp,,87.14603018015623,14.71392506477423,1.0,,right,silver,0.0,261.0,2.0,right,2023_Nov_09_1806,habits_v_MRI,5.0,40.0,1.0,5.0,30.0,15.0,5.0,15.0,30.0,30.0,60.0,RR,59.87114969729606,
5.0,1.0,resp2,stim/right_resp_img.png,"[-0.5, 0]",right,stim/silver_coin.png,silver,,,,,training,,,silver,deval,,,,,0.0,0.0,0.0,0.0,0.0,1.0,1.0,1.0,,,,,,,,,0.0,training_resp,,87.46236771345139,15.030474614119155,1.0,,right,silver,0.0,261.0,2.0,right,2023_Nov_09_1806,habits_v_MRI,5.0,40.0,1.0,5.0,30.0,15.0,5.0,15.0,30.0,30.0,60.0,RR,59.87114969729606,
5.0,1.0,resp2,stim/right_resp_img.png,"[-0.5, 0]",right,stim/silver_coin.png,silver,,,,,training,,,silver,deval,,,,,0.0,0.0,0.0,0.0,0.0,1.0,1.0,1.0,,,,,,,,,0.0,training_resp,,87.81242842995562,15.380482546519488,1.0,,right,silver,0.0,261.0,2.0,right,2023_Nov_09_1806,habits_v_MRI,5.0,40.0,1.0,5.0,30.0,15.0,5.0,15.0,30.0,30.0,60.0,RR,59.87114969729606,
5.0,1.0,resp2,stim/right_resp_img.png,"[-0.5, 0]",right,stim/silver_coin.png,silver,,,,,training,,,silver,deval,,,,,0.0,0.0,0.0,0.0,0.0,1.0,1.0,1.0,,,,,,,,,0.0,training_resp,,88.12922313227318,15.697281354339792,1.0,,right,silver,0.0,261.0,2.0,right,2023_Nov_09_1806,habits_v_MRI,5.0,40.0,1.0,5.0,30.0,15.0,5.0,15.0,30.0,30.0,60.0,RR,59.87114969729606,
5.0,1.0,resp2,stim/right_resp_img.png,"[-0.5, 0]",right,stim/silver_coin.png,silver,,,,,training,,,silver,deval,,,,,0.0,0.0,0.0,0.0,0.0,1.0,1.0,1.0,,,,,,,,,0.0,training_resp,,88.46306505030952,16.030846742214635,1.0,,right,silver,0.0,261.0,2.0,right,2023_Nov_09_1806,habits_v_MRI,5.0,40.0,1.0,5.0,30.0,15.0,5.0,15.0,30.0,30.0,60.0,RR,59.87114969729606,
5.0,1.0,resp2,stim/right_resp_img.png,"[-0.5, 0]",right,stim/silver_coin.png,silver,,,,,training,,,silver,deval,,,,,0.0,0.0,0.0,0.0,0.0,1.0,1.0,1.0,,,,,,,,,0.0,training_resp,,88.79572489741258,16.363823293941095,1.0,,right,silver,0.0,261.0,2.0,right,2023_Nov_09_1806,habits_v_MRI,5.0,40.0,1.0,5.0,30.0,15.0,5.0,15.0,30.0,30.0,60.0,RR,59.87114969729606,
5.0,1.0,resp2,stim/right_resp_img.png,"[-0.5, 0]",right,stim/silver_coin.png,silver,,,,,training,,,silver,deval,,,,,0.0,0.0,0.0,0.0,0.0,1.0,1.0,1.0,,,,,,,,,0.0,training_resp,,89.12922958354466,16.69711713702418,1.0,,right,silver,0.0,261.0,2.0,right,2023_Nov_09_1806,habits_v_MRI,5.0,40.0,1.0,5.0,30.0,15.0,5.0,15.0,30.0,30.0,60.0,RR,59.87114969729606,
5.0,1.0,resp2,stim/right_resp_img.png,"[-0.5, 0]",right,stim/silver_coin.png,silver,,,,,training,,,silver,deval,,,,,0.0,0.0,0.0,0.0,0.0,1.0,1.0,1.0,,,,,,,,,0.0,training_resp,,89.44555919943377,17.013700409792364,1.0,,right,silver,0.0,261.0,2.0,right,2023_Nov_09_1806,habits_v_MRI,5.0,40.0,1.0,5.0,30.0,15.0,5.0,15.0,30.0,30.0,60.0,RR,59.87114969729606,
5.0,1.0,resp2,stim/right_resp_img.png,"[-0.5, 0]",right,stim/silver_coin.png,silver,,,,,training,,,silver,deval,,,,,0.0,0.0,0.0,0.0,0.0,1.0,1.0,1.0,,,,,,,,,0.0,training_resp,,89.79567006067373,17.363650572719052,1.0,,right,silver,0.0,261.0,2.0,right,2023_Nov_09_1806,habits_v_MRI,5.0,40.0,1.0,5.0,30.0,15.0,5.0,15.0,30.0,30.0,60.0,RR,59.87114969729606,
5.0,1.0,resp2,stim/right_resp_img.png,"[-0.5, 0]",right,stim/silver_coin.png,silver,,,,,training,,,silver,deval,,,,,0.0,0.0,0.0,0.0,0.0,1.0,1.0,1.0,,,,,,,,,0.0,training_resp,,90.11247766576707,17.680412724846974,1.0,,right,silver,0.0,261.0,2.0,right,2023_Nov_09_1806,habits_v_MRI,5.0,40.0,1.0,5.0,30.0,15.0,5.0,15.0,30.0,30.0,60.0,RR,59.87114969729606,
5.0,1.0,resp2,stim/right_resp_img.png,"[-0.5, 0]",right,stim/silver_coin.png,silver,,,,,training,,,silver,deval,,,,,0.0,0.0,0.0,0.0,0.0,1.0,1.0,1.0,,,,,,,,,0.0,training_resp,,90.44518179283476,18.013547335751355,1.0,,right,silver,0.0,261.0,2.0,right,2023_Nov_09_1806,habits_v_MRI,5.0,40.0,1.0,5.0,30.0,15.0,5.0,15.0,30.0,30.0,60.0,RR,59.87114969729606,
5.0,1.0,resp2,stim/right_resp_img.png,"[-0.5, 0]",right,stim/silver_coin.png,silver,,,,,training,,,silver,deval,,,,,0.0,0.0,0.0,0.0,0.0,1.0,1.0,1.0,,,,,,,,,0.0,training_resp,,90.79544044961222,18.36360453325324,1.0,,right,silver,0.0,261.0,2.0,right,2023_Nov_09_1806,habits_v_MRI,5.0,40.0,1.0,5.0,30.0,15.0,5.0,15.0,30.0,30.0,60.0,RR,59.87114969729606,
5.0,1.0,resp2,stim/right_resp_img.png,"[-0.5, 0]",right,stim/silver_coin.png,silver,,,,,training,,,silver,deval,,,,,0.0,0.0,0.0,0.0,0.0,1.0,1.0,1.0,,,,,,,,,0.0,training_resp,,91.1456269682385,18.713589005870745,1.0,,right,silver,0.0,261.0,2.0,right,2023_Nov_09_1806,habits_v_MRI,5.0,40.0,1.0,5.0,30.0,15.0,5.0,15.0,30.0,30.0,60.0,RR,59.87114969729606,
5.0,1.0,resp2,stim/right_resp_img.png,"[-0.5, 0]",right,stim/silver_coin.png,silver,,,,,training,,,silver,deval,,,,,0.0,0.0,0.0,0.0,0.0,1.0,1.0,1.0,,,,,,,,,0.0,training_resp,,91.47909411904402,19.046926835551854,1.0,,right,silver,0.0,261.0,2.0,right,2023_Nov_09_1806,habits_v_MRI,5.0,40.0,1.0,5.0,30.0,15.0,5.0,15.0,30.0,30.0,60.0,RR,59.87114969729606,
5.0,1.0,resp2,stim/right_resp_img.png,"[-0.5, 0]",right,stim/silver_coin.png,silver,,,,,training,,,silver,deval,,,,,0.0,0.0,0.0,0.0,0.0,1.0,1.0,1.0,,,,,,,,,0.0,training_resp,,91.79545569838956,19.36353796650656,1.0,9.0,right,silver,1.0,261.0,2.0,right,2023_Nov_09_1806,habits_v_MRI,5.0,40.0,1.0,5.0,30.0,15.0,5.0,15.0,30.0,30.0,60.0,RR,59.87114969729606,
5.0,1.0,resp2,stim/right_resp_img.png,"[-0.5, 0]",right,stim/silver_coin.png,silver,,,,,training,,,silver,deval,,,,,0.0,0.0,0.0,0.0,0.0,1.0,1.0,1.0,,,,,,,,,0.0,training_resp,,92.67866791668348,20.24679182562977,1.0,,right,silver,0.0,261.0,2.0,right,2023_Nov_09_1806,habits_v_MRI,5.0,40.0,1.0,5.0,30.0,15.0,5.0,15.0,30.0,30.0,60.0,RR,59.87114969729606,
5.0,1.0,resp2,stim/right_resp_img.png,"[-0.5, 0]",right,stim/silver_coin.png,silver,,,,,training,,,silver,deval,,,,,0.0,0.0,0.0,0.0,0.0,1.0,1.0,1.0,,,,,,,,,0.0,training_resp,,93.01222157478333,20.580258389934897,1.0,,right,silver,0.0,261.0,2.0,right,2023_Nov_09_1806,habits_v_MRI,5.0,40.0,1.0,5.0,30.0,15.0,5.0,15.0,30.0,30.0,60.0,RR,59.87114969729606,
5.0,1.0,resp2,stim/right_resp_img.png,"[-0.5, 0]",right,stim/silver_coin.png,silver,,,,,training,,,silver,deval,,,,,0.0,0.0,0.0,0.0,0.0,1.0,1.0,1.0,,,,,,,,,0.0,training_resp,,93.3120711108204,20.88011936238036,1.0,,right,silver,0.0,261.0,2.0,right,2023_Nov_09_1806,habits_v_MRI,5.0,40.0,1.0,5.0,30.0,15.0,5.0,15.0,30.0,30.0,60.0,RR,59.87114969729606,
5.0,1.0,resp2,stim/right_resp_img.png,"[-0.5, 0]",right,stim/silver_coin.png,silver,,,,,training,,,silver,deval,,,,,0.0,0.0,0.0,0.0,0.0,1.0,1.0,1.0,,,,,,,,,0.0,training_resp,,93.62896405020729,21.196828730637208,1.0,,right,silver,0.0,261.0,2.0,right,2023_Nov_09_1806,habits_v_MRI,5.0,40.0,1.0,5.0,30.0,15.0,5.0,15.0,30.0,30.0,60.0,RR,59.87114969729606,
5.0,1.0,resp2,stim/right_resp_img.png,"[-0.5, 0]",right,stim/silver_coin.png,silver,,,,,training,,,silver,deval,,,,,0.0,0.0,0.0,0.0,0.0,1.0,1.0,1.0,,,,,,,,,0.0,training_resp,,93.96216434799136,21.53011348284781,1.0,,right,silver,0.0,261.0,2.0,right,2023_Nov_09_1806,habits_v_MRI,5.0,40.0,1.0,5.0,30.0,15.0,5.0,15.0,30.0,30.0,60.0,RR,59.87114969729606,
5.0,1.0,resp2,stim/right_resp_img.png,"[-0.5, 0]",right,stim/silver_coin.png,silver,,,,,training,,,silver,deval,,,,,0.0,0.0,0.0,0.0,0.0,1.0,1.0,1.0,,,,,,,,,0.0,training_resp,,94.27910567284562,21.84714952600189,1.0,,right,silver,0.0,261.0,2.0,right,2023_Nov_09_1806,habits_v_MRI,5.0,40.0,1.0,5.0,30.0,15.0,5.0,15.0,30.0,30.0,60.0,RR,59.87114969729606,
5.0,1.0,resp2,stim/right_resp_img.png,"[-0.5, 0]",right,stim/silver_coin.png,silver,,,,,training,,,silver,deval,,,,,0.0,0.0,0.0,0.0,0.0,1.0,1.0,1.0,,,,,,,,,0.0,training_resp,,94.59529423783532,22.163414334412664,1.0,,right,silver,0.0,261.0,2.0,right,2023_Nov_09_1806,habits_v_MRI,5.0,40.0,1.0,5.0,30.0,15.0,5.0,15.0,30.0,30.0,60.0,RR,59.87114969729606,
5.0,1.0,resp2,stim/right_resp_img.png,"[-0.5, 0]",right,stim/silver_coin.png,silver,,,,,training,,,silver,deval,,,,,0.0,0.0,0.0,0.0,0.0,1.0,1.0,1.0,,,,,,,,,0.0,training_resp,,94.9121414308902,22.480041300645095,1.0,,right,silver,0.0,261.0,2.0,right,2023_Nov_09_1806,habits_v_MRI,5.0,40.0,1.0,5.0,30.0,15.0,5.0,15.0,30.0,30.0,60.0,RR,59.87114969729606,
5.0,1.0,resp2,stim/right_resp_img.png,"[-0.5, 0]",right,stim/silver_coin.png,silver,,,,,training,,,silver,deval,,,,,0.0,0.0,0.0,0.0,0.0,1.0,1.0,1.0,,,,,,,,,0.0,training_resp,,95.26192415109836,22.83004864654504,1.0,9.0,right,silver,1.0,261.0,2.0,right,2023_Nov_09_1806,habits_v_MRI,5.0,40.0,1.0,5.0,30.0,15.0,5.0,15.0,30.0,30.0,60.0,RR,59.87114969729606,
5.0,1.0,resp2,stim/right_resp_img.png,"[-0.5, 0]",right,stim/silver_coin.png,silver,,,,,training,,,silver,deval,,,,,0.0,0.0,0.0,0.0,0.0,1.0,1.0,1.0,,,,,,,,,0.0,training_resp,,96.16211144672708,23.72991513204761,1.0,,right,silver,0.0,261.0,2.0,right,2023_Nov_09_1806,habits_v_MRI,5.0,40.0,1.0,5.0,30.0,15.0,5.0,15.0,30.0,30.0,60.0,RR,59.87114969729606,
5.0,1.0,resp2,stim/right_resp_img.png,"[-0.5, 0]",right,stim/silver_coin.png,silver,,,,,training,,,silver,deval,,,,,0.0,0.0,0.0,0.0,0.0,1.0,1.0,1.0,,,,,,,,,0.0,training_resp,,96.49538476252928,24.06325706723146,1.0,,right,silver,0.0,261.0,2.0,right,2023_Nov_09_1806,habits_v_MRI,5.0,40.0,1.0,5.0,30.0,15.0,5.0,15.0,30.0,30.0,60.0,RR,59.87114969729606,
5.0,1.0,resp2,stim/right_resp_img.png,"[-0.5, 0]",right,stim/silver_coin.png,silver,,,,,training,,,silver,deval,,,,,0.0,0.0,0.0,0.0,0.0,1.0,1.0,1.0,,,,,,,,,0.0,training_resp,,96.8284287606366,24.396567918360237,1.0,,right,silver,0.0,261.0,2.0,right,2023_Nov_09_1806,habits_v_MRI,5.0,40.0,1.0,5.0,30.0,15.0,5.0,15.0,30.0,30.0,60.0,RR,59.87114969729606,
5.0,1.0,resp2,stim/right_resp_img.png,"[-0.5, 0]",right,stim/silver_coin.png,silver,,,,,training,,,silver,deval,,,,,0.0,0.0,0.0,0.0,0.0,1.0,1.0,1.0,,,,,,,,,0.0,training_resp,,97.14521349268034,24.71324854833074,1.0,,right,silver,0.0,261.0,2.0,right,2023_Nov_09_1806,habits_v_MRI,5.0,40.0,1.0,5.0,30.0,15.0,5.0,15.0,30.0,30.0,60.0,RR,59.87114969729606,
5.0,1.0,resp2,stim/right_resp_img.png,"[-0.5, 0]",right,stim/silver_coin.png,silver,,,,,training,,,silver,deval,,,,,0.0,0.0,0.0,0.0,0.0,1.0,1.0,1.0,,,,,,,,,0.0,training_resp,,97.47864692029545,25.046526263002303,1.0,,right,silver,0.0,261.0,2.0,right,2023_Nov_09_1806,habits_v_MRI,5.0,40.0,1.0,5.0,30.0,15.0,5.0,15.0,30.0,30.0,60.0,RR,59.87114969729606,
5.0,1.0,resp2,stim/right_resp_img.png,"[-0.5, 0]",right,stim/silver_coin.png,silver,,,,,training,,,silver,deval,,,,,0.0,0.0,0.0,0.0,0.0,1.0,1.0,1.0,,,,,,,,,0.0,training_resp,,97.7951354747638,25.36317991442047,1.0,,right,silver,0.0,261.0,2.0,right,2023_Nov_09_1806,habits_v_MRI,5.0,40.0,1.0,5.0,30.0,15.0,5.0,15.0,30.0,30.0,60.0,RR,59.87114969729606,
5.0,1.0,resp2,stim/right_resp_img.png,"[-0.5, 0]",right,stim/silver_coin.png,silver,,,,,training,,,silver,deval,,,,,0.0,0.0,0.0,0.0,0.0,1.0,1.0,1.0,,,,,,,,,0.0,training_resp,,98.11202577501535,25.679859078256413,1.0,,right,silver,0.0,261.0,2.0,right,2023_Nov_09_1806,habits_v_MRI,5.0,40.0,1.0,5.0,30.0,15.0,5.0,15.0,30.0,30.0,60.0,RR,59.87114969729606,
5.0,1.0,resp2,stim/right_resp_img.png,"[-0.5, 0]",right,stim/silver_coin.png,silver,,,,,training,,,silver,deval,,,,,0.0,0.0,0.0,0.0,0.0,1.0,1.0,1.0,,,,,,,,,0.0,training_resp,,98.41253951122052,25.980371641227972,1.0,,right,silver,0.0,261.0,2.0,right,2023_Nov_09_1806,habits_v_MRI,5.0,40.0,1.0,5.0,30.0,15.0,5.0,15.0,30.0,30.0,60.0,RR,59.87114969729606,
5.0,1.0,resp2,stim/right_resp_img.png,"[-0.5, 0]",right,stim/silver_coin.png,silver,,,,,training,,,silver,deval,,,,,0.0,0.0,0.0,0.0,0.0,1.0,1.0,1.0,,,,,,,,,0.0,training_resp,,98.71180959488264,26.27980476920493,1.0,18.0,right,silver,1.0,261.0,2.0,right,2023_Nov_09_1806,habits_v_MRI,5.0,40.0,1.0,5.0,30.0,15.0,5.0,15.0,30.0,30.0,60.0,RR,59.87114969729606,
5.0,1.0,resp2,stim/right_resp_img.png,"[-0.5, 0]",right,stim/silver_coin.png,silver,,,,,training,,,silver,deval,,,,,0.0,0.0,0.0,0.0,0.0,1.0,1.0,1.0,,,,,,,,,0.0,training_resp,,99.41196357784791,26.979759932029992,1.0,,right,silver,0.0,261.0,2.0,right,2023_Nov_09_1806,habits_v_MRI,5.0,40.0,1.0,5.0,30.0,15.0,5.0,15.0,30.0,30.0,60.0,RR,59.87114969729606,
5.0,1.0,resp2,stim/right_resp_img.png,"[-0.5, 0]",right,stim/silver_coin.png,silver,,,,,training,,,silver,deval,,,,,0.0,0.0,0.0,0.0,0.0,1.0,1.0,1.0,,,,,,,,,0.0,training_resp,,99.69503920245916,27.263139358488843,1.0,,right,silver,0.0,261.0,2.0,right,2023_Nov_09_1806,habits_v_MRI,5.0,40.0,1.0,5.0,30.0,15.0,5.0,15.0,30.0,30.0,60.0,RR,59.87114969729606,
5.0,1.0,resp2,stim/right_resp_img.png,"[-0.5, 0]",right,stim/silver_coin.png,silver,,,,,training,,,silver,deval,,,,,0.0,0.0,0.0,0.0,0.0,1.0,1.0,1.0,,,,,,,,,0.0,training_resp,,99.96202271059155,27.53008973016404,1.0,,right,silver,0.0,261.0,2.0,right,2023_Nov_09_1806,habits_v_MRI,5.0,40.0,1.0,5.0,30.0,15.0,5.0,15.0,30.0,30.0,60.0,RR,59.87114969729606,
5.0,1.0,resp2,stim/right_resp_img.png,"[-0.5, 0]",right,stim/silver_coin.png,silver,,,,,training,,,silver,deval,,,,,0.0,0.0,0.0,0.0,0.0,1.0,1.0,1.0,,,,,,,,,0.0,training_resp,,100.26157225691712,27.829691767226905,1.0,,right,silver,0.0,261.0,2.0,right,2023_Nov_09_1806,habits_v_MRI,5.0,40.0,1.0,5.0,30.0,15.0,5.0,15.0,30.0,30.0,60.0,RR,59.87114969729606,
5.0,1.0,resp2,stim/right_resp_img.png,"[-0.5, 0]",right,stim/silver_coin.png,silver,,,,,training,,,silver,deval,,,,,0.0,0.0,0.0,0.0,0.0,1.0,1.0,1.0,,,,,,,,,0.0,training_resp,,100.52867394289932,28.09656149637885,1.0,,right,silver,0.0,261.0,2.0,right,2023_Nov_09_1806,habits_v_MRI,5.0,40.0,1.0,5.0,30.0,15.0,5.0,15.0,30.0,30.0,60.0,RR,59.87114969729606,
5.0,1.0,resp2,stim/right_resp_img.png,"[-0.5, 0]",right,stim/silver_coin.png,silver,,,,,training,,,silver,deval,,,,,0.0,0.0,0.0,0.0,0.0,1.0,1.0,1.0,,,,,,,,,0.0,training_resp,,100.84504930488764,28.41330781322904,1.0,,right,silver,0.0,261.0,2.0,right,2023_Nov_09_1806,habits_v_MRI,5.0,40.0,1.0,5.0,30.0,15.0,5.0,15.0,30.0,30.0,60.0,RR,59.87114969729606,
5.0,1.0,resp2,stim/right_resp_img.png,"[-0.5, 0]",right,stim/silver_coin.png,silver,,,,,training,,,silver,deval,,,,,0.0,0.0,0.0,0.0,0.0,1.0,1.0,1.0,,,,,,,,,0.0,training_resp,,101.14506481750868,28.7133042649366,1.0,,right,silver,0.0,261.0,2.0,right,2023_Nov_09_1806,habits_v_MRI,5.0,40.0,1.0,5.0,30.0,15.0,5.0,15.0,30.0,30.0,60.0,RR,59.87114969729606,
5.0,1.0,resp2,stim/right_resp_img.png,"[-0.5, 0]",right,stim/silver_coin.png,silver,,,,,training,,,silver,deval,,,,,0.0,0.0,0.0,0.0,0.0,1.0,1.0,1.0,,,,,,,,,0.0,training_resp,,101.42832459998316,28.99624763615429,1.0,,right,silver,0.0,261.0,2.0,right,2023_Nov_09_1806,habits_v_MRI,5.0,40.0,1.0,5.0,30.0,15.0,5.0,15.0,30.0,30.0,60.0,RR,59.87114969729606,
5.0,1.0,resp2,stim/right_resp_img.png,"[-0.5, 0]",right,stim/silver_coin.png,silver,,,,,training,,,silver,deval,,,,,0.0,0.0,0.0,0.0,0.0,1.0,1.0,1.0,,,,,,,,,0.0,training_resp,,101.72826122981496,29.296275465050712,1.0,,right,silver,0.0,261.0,2.0,right,2023_Nov_09_1806,habits_v_MRI,5.0,40.0,1.0,5.0,30.0,15.0,5.0,15.0,30.0,30.0,60.0,RR,59.87114969729606,
5.0,1.0,resp2,stim/right_resp_img.png,"[-0.5, 0]",right,stim/silver_coin.png,silver,,,,,training,,,silver,deval,,,,,0.0,0.0,0.0,0.0,0.0,1.0,1.0,1.0,,,,,,,,,0.0,training_resp,,102.04492455837315,29.61303087254055,1.0,,right,silver,0.0,261.0,2.0,right,2023_Nov_09_1806,habits_v_MRI,5.0,40.0,1.0,5.0,30.0,15.0,5.0,15.0,30.0,30.0,60.0,RR,59.87114969729606,
5.0,1.0,resp2,stim/right_resp_img.png,"[-0.5, 0]",right,stim/silver_coin.png,silver,,,,,training,,,silver,deval,,,,,0.0,0.0,0.0,0.0,0.0,1.0,1.0,1.0,,,,,,,,,0.0,training_resp,,102.36165269394404,29.929499779595066,1.0,,right,silver,0.0,261.0,2.0,right,2023_Nov_09_1806,habits_v_MRI,5.0,40.0,1.0,5.0,30.0,15.0,5.0,15.0,30.0,30.0,60.0,RR,59.87114969729606,
5.0,1.0,resp2,stim/right_resp_img.png,"[-0.5, 0]",right,stim/silver_coin.png,silver,,,,,training,,,silver,deval,,,,,0.0,0.0,0.0,0.0,0.0,1.0,1.0,1.0,,,,,,,,,0.0,training_resp,,102.67808875767514,30.246205335482955,1.0,,right,silver,0.0,261.0,2.0,right,2023_Nov_09_1806,habits_v_MRI,5.0,40.0,1.0,5.0,30.0,15.0,5.0,15.0,30.0,30.0,60.0,RR,59.87114969729606,
5.0,1.0,resp2,stim/right_resp_img.png,"[-0.5, 0]",right,stim/silver_coin.png,silver,,,,,training,,,silver,deval,,,,,0.0,0.0,0.0,0.0,0.0,1.0,1.0,1.0,,,,,,,,,0.0,training_resp,,103.01201571687125,30.579740226035938,1.0,,right,silver,0.0,261.0,2.0,right,2023_Nov_09_1806,habits_v_MRI,5.0,40.0,1.0,5.0,30.0,15.0,5.0,15.0,30.0,30.0,60.0,RR,59.87114969729606,
5.0,1.0,resp2,stim/right_resp_img.png,"[-0.5, 0]",right,stim/silver_coin.png,silver,,,,,training,,,silver,deval,,,,,0.0,0.0,0.0,0.0,0.0,1.0,1.0,1.0,,,,,,,,,0.0,training_resp,,103.32811014982872,30.896158401621506,1.0,,right,silver,0.0,261.0,2.0,right,2023_Nov_09_1806,habits_v_MRI,5.0,40.0,1.0,5.0,30.0,15.0,5.0,15.0,30.0,30.0,60.0,RR,59.87114969729606,
5.0,1.0,resp2,stim/right_resp_img.png,"[-0.5, 0]",right,stim/silver_coin.png,silver,,,,,training,,,silver,deval,,,,,0.0,0.0,0.0,0.0,0.0,1.0,1.0,1.0,,,,,,,,,0.0,training_resp,,103.66153566003776,31.22945781634189,1.0,,right,silver,0.0,261.0,2.0,right,2023_Nov_09_1806,habits_v_MRI,5.0,40.0,1.0,5.0,30.0,15.0,5.0,15.0,30.0,30.0,60.0,RR,59.87114969729606,
5.0,1.0,resp2,stim/right_resp_img.png,"[-0.5, 0]",right,stim/silver_coin.png,silver,,,,,training,,,silver,deval,,,,,0.0,0.0,0.0,0.0,0.0,1.0,1.0,1.0,,,,,,,,,0.0,training_resp,,103.99528520577589,31.56328096659854,1.0,,right,silver,0.0,261.0,2.0,right,2023_Nov_09_1806,habits_v_MRI,5.0,40.0,1.0,5.0,30.0,15.0,5.0,15.0,30.0,30.0,60.0,RR,59.87114969729606,
5.0,1.0,resp2,stim/right_resp_img.png,"[-0.5, 0]",right,stim/silver_coin.png,silver,,,,,training,,,silver,deval,,,,,0.0,0.0,0.0,0.0,0.0,1.0,1.0,1.0,,,,,,,,,0.0,training_resp,,104.32767380122095,31.895933482563123,1.0,,right,silver,0.0,261.0,2.0,right,2023_Nov_09_1806,habits_v_MRI,5.0,40.0,1.0,5.0,30.0,15.0,5.0,15.0,30.0,30.0,60.0,RR,59.87114969729606,
5.0,1.0,resp2,stim/right_resp_img.png,"[-0.5, 0]",right,stim/silver_coin.png,silver,,,,,training,,,silver,deval,,,,,0.0,0.0,0.0,0.0,0.0,1.0,1.0,1.0,,,,,,,,,0.0,training_resp,,104.661250625737,32.22935195476748,1.0,16.0,right,silver,1.0,261.0,2.0,right,2023_Nov_09_1806,habits_v_MRI,5.0,40.0,1.0,5.0,30.0,15.0,5.0,15.0,30.0,30.0,60.0,RR,59.87114969729606,
5.0,1.0,resp2,stim/right_resp_img.png,"[-0.5, 0]",right,stim/silver_coin.png,silver,,,,,training,,,silver,deval,,,,,0.0,0.0,0.0,0.0,0.0,1.0,1.0,1.0,,,,,,,,,0.0,training_resp,,105.36190693755634,32.92967367405072,1.0,,right,silver,0.0,261.0,2.0,right,2023_Nov_09_1806,habits_v_MRI,5.0,40.0,1.0,5.0,30.0,15.0,5.0,15.0,30.0,30.0,60.0,RR,59.87114969729606,
5.0,1.0,resp2,stim/right_resp_img.png,"[-0.5, 0]",right,stim/silver_coin.png,silver,,,,,training,,,silver,deval,,,,,0.0,0.0,0.0,0.0,0.0,1.0,1.0,1.0,,,,,,,,,0.0,training_resp,,105.66076823766343,33.22920797136612,1.0,,right,silver,0.0,261.0,2.0,right,2023_Nov_09_1806,habits_v_MRI,5.0,40.0,1.0,5.0,30.0,15.0,5.0,15.0,30.0,30.0,60.0,RR,59.87114969729606,
5.0,1.0,resp2,stim/right_resp_img.png,"[-0.5, 0]",right,stim/silver_coin.png,silver,,,,,training,,,silver,deval,,,,,0.0,0.0,0.0,0.0,0.0,1.0,1.0,1.0,,,,,,,,,0.0,training_resp,,105.94495056918822,33.51301700202748,1.0,,right,silver,0.0,261.0,2.0,right,2023_Nov_09_1806,habits_v_MRI,5.0,40.0,1.0,5.0,30.0,15.0,5.0,15.0,30.0,30.0,60.0,RR,59.87114969729606,
5.0,1.0,resp2,stim/right_resp_img.png,"[-0.5, 0]",right,stim/silver_coin.png,silver,,,,,training,,,silver,deval,,,,,0.0,0.0,0.0,0.0,0.0,1.0,1.0,1.0,,,,,,,,,0.0,training_resp,,106.26079075876623,33.82918885187246,1.0,,right,silver,0.0,261.0,2.0,right,2023_Nov_09_1806,habits_v_MRI,5.0,40.0,1.0,5.0,30.0,15.0,5.0,15.0,30.0,30.0,60.0,RR,59.87114969729606,
5.0,1.0,resp2,stim/right_resp_img.png,"[-0.5, 0]",right,stim/silver_coin.png,silver,,,,,training,,,silver,deval,,,,,0.0,0.0,0.0,0.0,0.0,1.0,1.0,1.0,,,,,,,,,0.0,training_resp,,106.57799219200388,34.14604865456931,1.0,,right,silver,0.0,261.0,2.0,right,2023_Nov_09_1806,habits_v_MRI,5.0,40.0,1.0,5.0,30.0,15.0,5.0,15.0,30.0,30.0,60.0,RR,59.87114969729606,
5.0,1.0,resp2,stim/right_resp_img.png,"[-0.5, 0]",right,stim/silver_coin.png,silver,,,,,training,,,silver,deval,,,,,0.0,0.0,0.0,0.0,0.0,1.0,1.0,1.0,,,,,,,,,0.0,training_resp,,106.89458044990896,34.462512869853526,1.0,,right,silver,0.0,261.0,2.0,right,2023_Nov_09_1806,habits_v_MRI,5.0,40.0,1.0,5.0,30.0,15.0,5.0,15.0,30.0,30.0,60.0,RR,59.87114969729606,
5.0,1.0,resp2,stim/right_resp_img.png,"[-0.5, 0]",right,stim/silver_coin.png,silver,,,,,training,,,silver,deval,,,,,0.0,0.0,0.0,0.0,0.0,1.0,1.0,1.0,,,,,,,,,0.0,training_resp,,107.19467367255127,34.76251958520152,1.0,,right,silver,0.0,261.0,2.0,right,2023_Nov_09_1806,habits_v_MRI,5.0,40.0,1.0,5.0,30.0,15.0,5.0,15.0,30.0,30.0,60.0,RR,59.87114969729606,
5.0,1.0,resp2,stim/right_resp_img.png,"[-0.5, 0]",right,stim/silver_coin.png,silver,,,,,training,,,silver,deval,,,,,0.0,0.0,0.0,0.0,0.0,1.0,1.0,1.0,,,,,,,,,0.0,training_resp,,107.47850498976186,35.04633536026813,1.0,,right,silver,0.0,261.0,2.0,right,2023_Nov_09_1806,habits_v_MRI,5.0,40.0,1.0,5.0,30.0,15.0,5.0,15.0,30.0,30.0,60.0,RR,59.87114969729606,
5.0,1.0,resp2,stim/right_resp_img.png,"[-0.5, 0]",right,stim/silver_coin.png,silver,,,,,training,,,silver,deval,,,,,0.0,0.0,0.0,0.0,0.0,1.0,1.0,1.0,,,,,,,,,0.0,training_resp,,107.7778800551314,35.346136804204434,1.0,,right,silver,0.0,261.0,2.0,right,2023_Nov_09_1806,habits_v_MRI,5.0,40.0,1.0,5.0,30.0,15.0,5.0,15.0,30.0,30.0,60.0,RR,59.87114969729606,
5.0,1.0,resp2,stim/right_resp_img.png,"[-0.5, 0]",right,stim/silver_coin.png,silver,,,,,training,,,silver,deval,,,,,0.0,0.0,0.0,0.0,0.0,1.0,1.0,1.0,,,,,,,,,0.0,training_resp,,108.11113988165744,35.67918109544553,1.0,,right,silver,0.0,261.0,2.0,right,2023_Nov_09_1806,habits_v_MRI,5.0,40.0,1.0,5.0,30.0,15.0,5.0,15.0,30.0,30.0,60.0,RR,59.87114969729606,
5.0,1.0,resp2,stim/right_resp_img.png,"[-0.5, 0]",right,stim/silver_coin.png,silver,,,,,training,,,silver,deval,,,,,0.0,0.0,0.0,0.0,0.0,1.0,1.0,1.0,,,,,,,,,0.0,training_resp,,108.46103110257536,36.02912656660192,1.0,,right,silver,0.0,261.0,2.0,right,2023_Nov_09_1806,habits_v_MRI,5.0,40.0,1.0,5.0,30.0,15.0,5.0,15.0,30.0,30.0,60.0,RR,59.87114969729606,
5.0,1.0,resp2,stim/right_resp_img.png,"[-0.5, 0]",right,stim/silver_coin.png,silver,,,,,training,,,silver,deval,,,,,0.0,0.0,0.0,0.0,0.0,1.0,1.0,1.0,,,,,,,,,0.0,training_resp,,108.77786275371908,36.345763503108174,1.0,,right,silver,0.0,261.0,2.0,right,2023_Nov_09_1806,habits_v_MRI,5.0,40.0,1.0,5.0,30.0,15.0,5.0,15.0,30.0,30.0,60.0,RR,59.87114969729606,
5.0,1.0,resp2,stim/right_resp_img.png,"[-0.5, 0]",right,stim/silver_coin.png,silver,,,,,training,,,silver,deval,,,,,0.0,0.0,0.0,0.0,0.0,1.0,1.0,1.0,,,,,,,,,0.0,training_resp,,109.07777768326925,36.64590804371983,1.0,,right,silver,0.0,261.0,2.0,right,2023_Nov_09_1806,habits_v_MRI,5.0,40.0,1.0,5.0,30.0,15.0,5.0,15.0,30.0,30.0,60.0,RR,59.87114969729606,
5.0,1.0,resp2,stim/right_resp_img.png,"[-0.5, 0]",right,stim/silver_coin.png,silver,,,,,training,,,silver,deval,,,,,0.0,0.0,0.0,0.0,0.0,1.0,1.0,1.0,,,,,,,,,0.0,training_resp,,109.41102372738531,36.97905614390038,1.0,,right,silver,0.0,261.0,2.0,right,2023_Nov_09_1806,habits_v_MRI,5.0,40.0,1.0,5.0,30.0,15.0,5.0,15.0,30.0,30.0,60.0,RR,59.87114969729606,
5.0,1.0,resp2,stim/right_resp_img.png,"[-0.5, 0]",right,stim/silver_coin.png,silver,,,,,training,,,silver,deval,,,,,0.0,0.0,0.0,0.0,0.0,1.0,1.0,1.0,,,,,,,,,0.0,training_resp,,109.7443996788934,37.312373446533456,1.0,,right,silver,0.0,261.0,2.0,right,2023_Nov_09_1806,habits_v_MRI,5.0,40.0,1.0,5.0,30.0,15.0,5.0,15.0,30.0,30.0,60.0,RR,59.87114969729606,
5.0,1.0,resp2,stim/right_resp_img.png,"[-0.5, 0]",right,stim/silver_coin.png,silver,,,,,training,,,silver,deval,,,,,0.0,0.0,0.0,0.0,0.0,1.0,1.0,1.0,,,,,,,,,0.0,training_resp,,110.07771756802686,37.645639137830585,1.0,16.0,right,silver,1.0,261.0,2.0,right,2023_Nov_09_1806,habits_v_MRI,5.0,40.0,1.0,5.0,30.0,15.0,5.0,15.0,30.0,30.0,60.0,RR,59.87114969729606,
5.0,1.0,resp2,stim/right_resp_img.png,"[-0.5, 0]",right,stim/silver_coin.png,silver,,,,,training,,,silver,deval,,,,,0.0,0.0,0.0,0.0,0.0,1.0,1.0,1.0,,,,,,,,,0.0,training_resp,,110.92846110556276,38.49621875141747,1.0,,right,silver,0.0,261.0,2.0,right,2023_Nov_09_1806,habits_v_MRI,5.0,40.0,1.0,5.0,30.0,15.0,5.0,15.0,30.0,30.0,60.0,RR,59.87114969729606,
5.0,1.0,resp2,stim/right_resp_img.png,"[-0.5, 0]",right,stim/silver_coin.png,silver,,,,,training,,,silver,deval,,,,,0.0,0.0,0.0,0.0,0.0,1.0,1.0,1.0,,,,,,,,,0.0,training_resp,,111.24438428366555,38.8123342981562,1.0,,right,silver,0.0,261.0,2.0,right,2023_Nov_09_1806,habits_v_MRI,5.0,40.0,1.0,5.0,30.0,15.0,5.0,15.0,30.0,30.0,60.0,RR,59.87114969729606,
5.0,1.0,resp2,stim/right_resp_img.png,"[-0.5, 0]",right,stim/silver_coin.png,silver,,,,,training,,,silver,deval,,,,,0.0,0.0,0.0,0.0,0.0,1.0,1.0,1.0,,,,,,,,,0.0,training_resp,,111.56152530829422,39.12930670706555,1.0,,right,silver,0.0,261.0,2.0,right,2023_Nov_09_1806,habits_v_MRI,5.0,40.0,1.0,5.0,30.0,15.0,5.0,15.0,30.0,30.0,60.0,RR,59.87114969729606,
5.0,1.0,resp2,stim/right_resp_img.png,"[-0.5, 0]",right,stim/silver_coin.png,silver,,,,,training,,,silver,deval,,,,,0.0,0.0,0.0,0.0,0.0,1.0,1.0,1.0,,,,,,,,,0.0,training_resp,,111.84411355969496,39.41222339286469,1.0,,right,silver,0.0,261.0,2.0,right,2023_Nov_09_1806,habits_v_MRI,5.0,40.0,1.0,5.0,30.0,15.0,5.0,15.0,30.0,30.0,60.0,RR,59.87114969729606,
5.0,1.0,resp2,stim/right_resp_img.png,"[-0.5, 0]",right,stim/silver_coin.png,silver,,,,,training,,,silver,deval,,,,,0.0,0.0,0.0,0.0,0.0,1.0,1.0,1.0,,,,,,,,,0.0,training_resp,,112.17792263440788,39.74598730774596,1.0,,right,silver,0.0,261.0,2.0,right,2023_Nov_09_1806,habits_v_MRI,5.0,40.0,1.0,5.0,30.0,15.0,5.0,15.0,30.0,30.0,60.0,RR,59.87114969729606,
5.0,1.0,resp2,stim/right_resp_img.png,"[-0.5, 0]",right,stim/silver_coin.png,silver,,,,,training,,,silver,deval,,,,,0.0,0.0,0.0,0.0,0.0,1.0,1.0,1.0,,,,,,,,,0.0,training_resp,,112.4774226222653,40.04551662015729,1.0,,right,silver,0.0,261.0,2.0,right,2023_Nov_09_1806,habits_v_MRI,5.0,40.0,1.0,5.0,30.0,15.0,5.0,15.0,30.0,30.0,60.0,RR,59.87114969729606,
5.0,1.0,resp2,stim/right_resp_img.png,"[-0.5, 0]",right,stim/silver_coin.png,silver,,,,,training,,,silver,deval,,,,,0.0,0.0,0.0,0.0,0.0,1.0,1.0,1.0,,,,,,,,,0.0,training_resp,,112.79412436578424,40.36215590266511,1.0,,right,silver,0.0,261.0,2.0,right,2023_Nov_09_1806,habits_v_MRI,5.0,40.0,1.0,5.0,30.0,15.0,5.0,15.0,30.0,30.0,60.0,RR,59.87114969729606,
5.0,1.0,resp2,stim/right_resp_img.png,"[-0.5, 0]",right,stim/silver_coin.png,silver,,,,,training,,,silver,deval,,,,,0.0,0.0,0.0,0.0,0.0,1.0,1.0,1.0,,,,,,,,,0.0,training_resp,,113.1107668739278,40.67872861842625,1.0,,right,silver,0.0,261.0,2.0,right,2023_Nov_09_1806,habits_v_MRI,5.0,40.0,1.0,5.0,30.0,15.0,5.0,15.0,30.0,30.0,60.0,RR,59.87114969729606,
5.0,1.0,resp2,stim/right_resp_img.png,"[-0.5, 0]",right,stim/silver_coin.png,silver,,,,,training,,,silver,deval,,,,,0.0,0.0,0.0,0.0,0.0,1.0,1.0,1.0,,,,,,,,,0.0,training_resp,,113.42755189933814,40.99545558122918,1.0,,right,silver,0.0,261.0,2.0,right,2023_Nov_09_1806,habits_v_MRI,5.0,40.0,1.0,5.0,30.0,15.0,5.0,15.0,30.0,30.0,60.0,RR,59.87114969729606,
5.0,1.0,resp2,stim/right_resp_img.png,"[-0.5, 0]",right,stim/silver_coin.png,silver,,,,,training,,,silver,deval,,,,,0.0,0.0,0.0,0.0,0.0,1.0,1.0,1.0,,,,,,,,,0.0,training_resp,,113.7275483510457,41.29554029973224,1.0,,right,silver,0.0,261.0,2.0,right,2023_Nov_09_1806,habits_v_MRI,5.0,40.0,1.0,5.0,30.0,15.0,5.0,15.0,30.0,30.0,60.0,RR,59.87114969729606,
5.0,1.0,resp2,stim/right_resp_img.png,"[-0.5, 0]",right,stim/silver_coin.png,silver,,,,,training,,,silver,deval,,,,,0.0,0.0,0.0,0.0,0.0,1.0,1.0,1.0,,,,,,,,,0.0,training_resp,,114.06077328138052,41.62888311455026,1.0,,right,silver,0.0,261.0,2.0,right,2023_Nov_09_1806,habits_v_MRI,5.0,40.0,1.0,5.0,30.0,15.0,5.0,15.0,30.0,30.0,60.0,RR,59.87114969729606,
5.0,1.0,resp2,stim/right_resp_img.png,"[-0.5, 0]",right,stim/silver_coin.png,silver,,,,,training,,,silver,deval,,,,,0.0,0.0,0.0,0.0,0.0,1.0,1.0,1.0,,,,,,,,,0.0,training_resp,,114.343976467615,41.9120646007359,1.0,,right,silver,0.0,261.0,2.0,right,2023_Nov_09_1806,habits_v_MRI,5.0,40.0,1.0,5.0,30.0,15.0,5.0,15.0,30.0,30.0,60.0,RR,59.87114969729606,
5.0,1.0,resp2,stim/right_resp_img.png,"[-0.5, 0]",right,stim/silver_coin.png,silver,,,,,training,,,silver,deval,,,,,0.0,0.0,0.0,0.0,0.0,1.0,1.0,1.0,,,,,,,,,0.0,training_resp,,114.66086148959585,42.22874699020758,1.0,,right,silver,0.0,261.0,2.0,right,2023_Nov_09_1806,habits_v_MRI,5.0,40.0,1.0,5.0,30.0,15.0,5.0,15.0,30.0,30.0,60.0,RR,59.87114969729606,
5.0,1.0,resp2,stim/right_resp_img.png,"[-0.5, 0]",right,stim/silver_coin.png,silver,,,,,training,,,silver,deval,,,,,0.0,0.0,0.0,0.0,0.0,1.0,1.0,1.0,,,,,,,,,0.0,training_resp,,114.97717732260936,42.54534316575155,1.0,,right,silver,0.0,261.0,2.0,right,2023_Nov_09_1806,habits_v_MRI,5.0,40.0,1.0,5.0,30.0,15.0,5.0,15.0,30.0,30.0,60.0,RR,59.87114969729606,
5.0,1.0,resp2,stim/right_resp_img.png,"[-0.5, 0]",right,stim/silver_coin.png,silver,,,,,training,,,silver,deval,,,,,0.0,0.0,0.0,0.0,0.0,1.0,1.0,1.0,,,,,,,,,0.0,training_resp,,115.31086997897364,42.87868480756879,1.0,,right,silver,0.0,261.0,2.0,right,2023_Nov_09_1806,habits_v_MRI,5.0,40.0,1.0,5.0,30.0,15.0,5.0,15.0,30.0,30.0,60.0,RR,59.87114969729606,
5.0,1.0,resp2,stim/right_resp_img.png,"[-0.5, 0]",right,stim/silver_coin.png,silver,,,,,training,,,silver,deval,,,,,0.0,0.0,0.0,0.0,0.0,1.0,1.0,1.0,,,,,,,,,0.0,training_resp,,115.61031894222832,43.17856014915742,1.0,16.0,right,silver,1.0,261.0,2.0,right,2023_Nov_09_1806,habits_v_MRI,5.0,40.0,1.0,5.0,30.0,15.0,5.0,15.0,30.0,30.0,60.0,RR,59.87114969729606,
5.0,1.0,resp2,stim/right_resp_img.png,"[-0.5, 0]",right,stim/silver_coin.png,silver,,,,,training,,,silver,deval,,,,,0.0,0.0,0.0,0.0,0.0,1.0,1.0,1.0,,,,,,,,,0.0,training_resp,,116.46052730735391,44.028608109336346,1.0,,right,silver,0.0,261.0,2.0,right,2023_Nov_09_1806,habits_v_MRI,5.0,40.0,1.0,5.0,30.0,15.0,5.0,15.0,30.0,30.0,60.0,RR,59.87114969729606,
5.0,1.0,resp2,stim/right_resp_img.png,"[-0.5, 0]",right,stim/silver_coin.png,silver,,,,,training,,,silver,deval,,,,,0.0,0.0,0.0,0.0,0.0,1.0,1.0,1.0,,,,,,,,,0.0,training_resp,,116.76080204872414,44.32861482468434,1.0,,right,silver,0.0,261.0,2.0,right,2023_Nov_09_1806,habits_v_MRI,5.0,40.0,1.0,5.0,30.0,15.0,5.0,15.0,30.0,30.0,60.0,RR,59.87114969729606,
5.0,1.0,resp2,stim/right_resp_img.png,"[-0.5, 0]",right,stim/silver_coin.png,silver,,,,,training,,,silver,deval,,,,,0.0,0.0,0.0,0.0,0.0,1.0,1.0,1.0,,,,,,,,,0.0,training_resp,,117.0607457163278,44.62854295037687,1.0,,right,silver,0.0,261.0,2.0,right,2023_Nov_09_1806,habits_v_MRI,5.0,40.0,1.0,5.0,30.0,15.0,5.0,15.0,30.0,30.0,60.0,RR,59.87114969729606,
5.0,1.0,resp2,stim/right_resp_img.png,"[-0.5, 0]",right,stim/silver_coin.png,silver,,,,,training,,,silver,deval,,,,,0.0,0.0,0.0,0.0,0.0,1.0,1.0,1.0,,,,,,,,,0.0,training_resp,,117.34384450735524,44.911837042542174,1.0,,right,silver,0.0,261.0,2.0,right,2023_Nov_09_1806,habits_v_MRI,5.0,40.0,1.0,5.0,30.0,15.0,5.0,15.0,30.0,30.0,60.0,RR,59.87114969729606,
5.0,1.0,resp2,stim/right_resp_img.png,"[-0.5, 0]",right,stim/silver_coin.png,silver,,,,,training,,,silver,deval,,,,,0.0,0.0,0.0,0.0,0.0,1.0,1.0,1.0,,,,,,,,,0.0,training_resp,,117.66114388452844,45.22909683152102,1.0,,right,silver,0.0,261.0,2.0,right,2023_Nov_09_1806,habits_v_MRI,5.0,40.0,1.0,5.0,30.0,15.0,5.0,15.0,30.0,30.0,60.0,RR,59.87114969729606,
5.0,1.0,resp2,stim/right_resp_img.png,"[-0.5, 0]",right,stim/silver_coin.png,silver,,,,,training,,,silver,deval,,,,,0.0,0.0,0.0,0.0,0.0,1.0,1.0,1.0,,,,,,,,,0.0,training_resp,,117.96059167478234,45.52856544218957,1.0,,right,silver,0.0,261.0,2.0,right,2023_Nov_09_1806,habits_v_MRI,5.0,40.0,1.0,5.0,30.0,15.0,5.0,15.0,30.0,30.0,60.0,RR,59.87114969729606,
5.0,1.0,resp2,stim/right_resp_img.png,"[-0.5, 0]",right,stim/silver_coin.png,silver,,,,,training,,,silver,deval,,,,,0.0,0.0,0.0,0.0,0.0,1.0,1.0,1.0,,,,,,,,,0.0,training_resp,,118.29385619331153,45.86192937078886,1.0,,right,silver,0.0,261.0,2.0,right,2023_Nov_09_1806,habits_v_MRI,5.0,40.0,1.0,5.0,30.0,15.0,5.0,15.0,30.0,30.0,60.0,RR,59.87114969729606,
5.0,1.0,resp2,stim/right_resp_img.png,"[-0.5, 0]",right,stim/silver_coin.png,silver,,,,,training,,,silver,deval,,,,,0.0,0.0,0.0,0.0,0.0,1.0,1.0,1.0,,,,,,,,,0.0,training_resp,,118.560646452941,46.12845629639924,1.0,,right,silver,0.0,261.0,2.0,right,2023_Nov_09_1806,habits_v_MRI,5.0,40.0,1.0,5.0,30.0,15.0,5.0,15.0,30.0,30.0,60.0,RR,59.87114969729606,
5.0,1.0,resp2,stim/right_resp_img.png,"[-0.5, 0]",right,stim/silver_coin.png,silver,,,,,training,,,silver,deval,,,,,0.0,0.0,0.0,0.0,0.0,1.0,1.0,1.0,,,,,,,,,0.0,training_resp,,118.86060742195696,46.42845098860562,1.0,,right,silver,0.0,261.0,2.0,right,2023_Nov_09_1806,habits_v_MRI,5.0,40.0,1.0,5.0,30.0,15.0,5.0,15.0,30.0,30.0,60.0,RR,59.87114969729606,
5.0,1.0,resp2,stim/right_resp_img.png,"[-0.5, 0]",right,stim/silver_coin.png,silver,,,,,training,,,silver,deval,,,,,0.0,0.0,0.0,0.0,0.0,1.0,1.0,1.0,,,,,,,,,0.0,training_resp,,119.17706606560388,46.7450506829191,1.0,,right,silver,0.0,261.0,2.0,right,2023_Nov_09_1806,habits_v_MRI,5.0,40.0,1.0,5.0,30.0,15.0,5.0,15.0,30.0,30.0,60.0,RR,59.87114969729606,
5.0,1.0,resp2,stim/right_resp_img.png,"[-0.5, 0]",right,stim/silver_coin.png,silver,,,,,training,,,silver,deval,,,,,0.0,0.0,0.0,0.0,0.0,1.0,1.0,1.0,,,,,,,,,0.0,training_resp,,119.477344912244,47.04526765504852,1.0,,right,silver,0.0,261.0,2.0,right,2023_Nov_09_1806,habits_v_MRI,5.0,40.0,1.0,5.0,30.0,15.0,5.0,15.0,30.0,30.0,60.0,RR,59.87114969729606,
5.0,1.0,resp2,stim/right_resp_img.png,"[-0.5, 0]",right,stim/silver_coin.png,silver,,,,,training,,,silver,deval,,,,,0.0,0.0,0.0,0.0,0.0,1.0,1.0,1.0,,,,,,,,,0.0,training_resp,,119.77739649405704,47.34531454485841,1.0,,right,silver,0.0,261.0,2.0,right,2023_Nov_09_1806,habits_v_MRI,5.0,40.0,1.0,5.0,30.0,15.0,5.0,15.0,30.0,30.0,60.0,RR,59.87114969729606,
5.0,1.0,resp2,stim/right_resp_img.png,"[-0.5, 0]",right,stim/silver_coin.png,silver,,,,,training,,,silver,deval,,,,,0.0,0.0,0.0,0.0,0.0,1.0,1.0,1.0,,,,,,,,,0.0,training_resp,,120.09381173737349,47.66203593602404,1.0,,right,silver,0.0,261.0,2.0,right,2023_Nov_09_1806,habits_v_MRI,5.0,40.0,1.0,5.0,30.0,15.0,5.0,15.0,30.0,30.0,60.0,RR,59.87114969729606,
5.0,1.0,resp2,stim/right_resp_img.png,"[-0.5, 0]",right,stim/silver_coin.png,silver,,,,,training,,,silver,deval,,,,,0.0,0.0,0.0,0.0,0.0,1.0,1.0,1.0,,,,,,,,,0.0,training_resp,,120.37696771114132,47.94502563984133,1.0,,right,silver,0.0,261.0,2.0,right,2023_Nov_09_1806,habits_v_MRI,5.0,40.0,1.0,5.0,30.0,15.0,5.0,15.0,30.0,30.0,60.0,RR,59.87114969729606,
5.0,1.0,resp2,stim/right_resp_img.png,"[-0.5, 0]",right,stim/silver_coin.png,silver,,,,,training,,,silver,deval,,,,,0.0,0.0,0.0,0.0,0.0,1.0,1.0,1.0,,,,,,,,,0.0,training_resp,,120.69378763251008,48.26164938043803,1.0,,right,silver,0.0,261.0,2.0,right,2023_Nov_09_1806,habits_v_MRI,5.0,40.0,1.0,5.0,30.0,15.0,5.0,15.0,30.0,30.0,60.0,RR,59.87114969729606,
5.0,1.0,resp2,stim/right_resp_img.png,"[-0.5, 0]",right,stim/silver_coin.png,silver,,,,,training,,,silver,deval,,,,,0.0,0.0,0.0,0.0,0.0,1.0,1.0,1.0,,,,,,,,,0.0,training_resp,,121.01038791332394,48.57825288688764,1.0,14.0,right,silver,1.0,261.0,2.0,right,2023_Nov_09_1806,habits_v_MRI,5.0,40.0,1.0,5.0,30.0,15.0,5.0,15.0,30.0,30.0,60.0,RR,59.87114969729606,
5.0,1.0,resp2,stim/right_resp_img.png,"[-0.5, 0]",right,stim/silver_coin.png,silver,,,,,training,,,silver,deval,,,,,0.0,0.0,0.0,0.0,0.0,1.0,1.0,1.0,,,,,,,,,0.0,training_resp,,121.82759799738416,49.395347432466224,1.0,,right,silver,0.0,261.0,2.0,right,2023_Nov_09_1806,habits_v_MRI,5.0,40.0,1.0,5.0,30.0,15.0,5.0,15.0,30.0,30.0,60.0,RR,59.87114969729606,
5.0,1.0,resp2,stim/right_resp_img.png,"[-0.5, 0]",right,stim/silver_coin.png,silver,,,,,training,,,silver,deval,,,,,0.0,0.0,0.0,0.0,0.0,1.0,1.0,1.0,,,,,,,,,0.0,training_resp,,122.14353877003305,49.71161048137583,1.0,,right,silver,0.0,261.0,2.0,right,2023_Nov_09_1806,habits_v_MRI,5.0,40.0,1.0,5.0,30.0,15.0,5.0,15.0,30.0,30.0,60.0,RR,59.87114969729606,
5.0,1.0,resp2,stim/right_resp_img.png,"[-0.5, 0]",right,stim/silver_coin.png,silver,,,,,training,,,silver,deval,,,,,0.0,0.0,0.0,0.0,0.0,1.0,1.0,1.0,,,,,,,,,0.0,training_resp,,122.42686805175616,49.9948966561351,1.0,,right,silver,0.0,261.0,2.0,right,2023_Nov_09_1806,habits_v_MRI,5.0,40.0,1.0,5.0,30.0,15.0,5.0,15.0,30.0,30.0,60.0,RR,59.87114969729606,
5.0,1.0,resp2,stim/right_resp_img.png,"[-0.5, 0]",right,stim/silver_coin.png,silver,,,,,training,,,silver,deval,,,,,0.0,0.0,0.0,0.0,0.0,1.0,1.0,1.0,,,,,,,,,0.0,training_resp,,122.72640645480716,50.29475088394247,1.0,,right,silver,0.0,261.0,2.0,right,2023_Nov_09_1806,habits_v_MRI,5.0,40.0,1.0,5.0,30.0,15.0,5.0,15.0,30.0,30.0,60.0,RR,59.87114969729606,
5.0,1.0,resp2,stim/right_resp_img.png,"[-0.5, 0]",right,stim/silver_coin.png,silver,,,,,training,,,silver,deval,,,,,0.0,0.0,0.0,0.0,0.0,1.0,1.0,1.0,,,,,,,,,0.0,training_resp,,123.02654571668243,50.594961697701365,1.0,,right,silver,0.0,261.0,2.0,right,2023_Nov_09_1806,habits_v_MRI,5.0,40.0,1.0,5.0,30.0,15.0,5.0,15.0,30.0,30.0,60.0,RR,59.87114969729606,
5.0,1.0,resp2,stim/right_resp_img.png,"[-0.5, 0]",right,stim/silver_coin.png,silver,,,,,training,,,silver,deval,,,,,0.0,0.0,0.0,0.0,0.0,1.0,1.0,1.0,,,,,,,,,0.0,training_resp,,123.3267310182564,50.89483410678804,1.0,,right,silver,0.0,261.0,2.0,right,2023_Nov_09_1806,habits_v_MRI,5.0,40.0,1.0,5.0,30.0,15.0,5.0,15.0,30.0,30.0,60.0,RR,59.87114969729606,
5.0,1.0,resp2,stim/right_resp_img.png,"[-0.5, 0]",right,stim/silver_coin.png,silver,,,,,training,,,silver,deval,,,,,0.0,0.0,0.0,0.0,0.0,1.0,1.0,1.0,,,,,,,,,0.0,training_resp,,123.6435829035472,51.21144992974587,1.0,,right,silver,0.0,261.0,2.0,right,2023_Nov_09_1806,habits_v_MRI,5.0,40.0,1.0,5.0,30.0,15.0,5.0,15.0,30.0,30.0,60.0,RR,59.87114969729606,
5.0,1.0,resp2,stim/right_resp_img.png,"[-0.5, 0]",right,stim/silver_coin.png,silver,,,,,training,,,silver,deval,,,,,0.0,0.0,0.0,0.0,0.0,1.0,1.0,1.0,,,,,,,,,0.0,training_resp,,123.927459966857,51.49523403448984,1.0,,right,silver,0.0,261.0,2.0,right,2023_Nov_09_1806,habits_v_MRI,5.0,40.0,1.0,5.0,30.0,15.0,5.0,15.0,30.0,30.0,60.0,RR,59.87114969729606,
5.0,1.0,resp2,stim/right_resp_img.png,"[-0.5, 0]",right,stim/silver_coin.png,silver,,,,,training,,,silver,deval,,,,,0.0,0.0,0.0,0.0,0.0,1.0,1.0,1.0,,,,,,,,,0.0,training_resp,,124.22684148373082,51.79502609441988,1.0,,right,silver,0.0,261.0,2.0,right,2023_Nov_09_1806,habits_v_MRI,5.0,40.0,1.0,5.0,30.0,15.0,5.0,15.0,30.0,30.0,60.0,RR,59.87114969729606,
5.0,1.0,resp2,stim/right_resp_img.png,"[-0.5, 0]",right,stim/silver_coin.png,silver,,,,,training,,,silver,deval,,,,,0.0,0.0,0.0,0.0,0.0,1.0,1.0,1.0,,,,,,,,,0.0,training_resp,,124.52684966521338,52.09489381150343,1.0,,right,silver,0.0,261.0,2.0,right,2023_Nov_09_1806,habits_v_MRI,5.0,40.0,1.0,5.0,30.0,15.0,5.0,15.0,30.0,30.0,60.0,RR,59.87114969729606,
5.0,1.0,resp2,stim/right_resp_img.png,"[-0.5, 0]",right,stim/silver_coin.png,silver,,,,,training,,,silver,deval,,,,,0.0,0.0,0.0,0.0,0.0,1.0,1.0,1.0,,,,,,,,,0.0,training_resp,,124.8435121141374,52.41138793784194,1.0,,right,silver,0.0,261.0,2.0,right,2023_Nov_09_1806,habits_v_MRI,5.0,40.0,1.0,5.0,30.0,15.0,5.0,15.0,30.0,30.0,60.0,RR,59.87114969729606,
5.0,1.0,resp2,stim/right_resp_img.png,"[-0.5, 0]",right,stim/silver_coin.png,silver,,,,,training,,,silver,deval,,,,,0.0,0.0,0.0,0.0,0.0,1.0,1.0,1.0,,,,,,,,,0.0,training_resp,,125.14313614461572,52.71127149020322,1.0,,right,silver,0.0,261.0,2.0,right,2023_Nov_09_1806,habits_v_MRI,5.0,40.0,1.0,5.0,30.0,15.0,5.0,15.0,30.0,30.0,60.0,RR,59.87114969729606,
5.0,1.0,resp2,stim/right_resp_img.png,"[-0.5, 0]",right,stim/silver_coin.png,silver,,,,,training,,,silver,deval,,,,,0.0,0.0,0.0,0.0,0.0,1.0,1.0,1.0,,,,,,,,,0.0,training_resp,,125.44375368952753,53.01129667996429,1.0,,right,silver,0.0,261.0,2.0,right,2023_Nov_09_1806,habits_v_MRI,5.0,40.0,1.0,5.0,30.0,15.0,5.0,15.0,30.0,30.0,60.0,RR,59.87114969729606,
5.0,1.0,resp2,stim/right_resp_img.png,"[-0.5, 0]",right,stim/silver_coin.png,silver,,,,,training,,,silver,deval,,,,,0.0,0.0,0.0,0.0,0.0,1.0,1.0,1.0,,,,,,,,,0.0,training_resp,,125.76069149537943,53.32839107862674,1.0,13.0,right,silver,1.0,261.0,2.0,right,2023_Nov_09_1806,habits_v_MRI,5.0,40.0,1.0,5.0,30.0,15.0,5.0,15.0,30.0,30.0,60.0,RR,59.87114969729606,
5.0,1.0,resp2,stim/right_resp_img.png,"[-0.5, 0]",right,stim/silver_coin.png,silver,,,,,training,,,silver,deval,,,,,0.0,0.0,0.0,0.0,0.0,1.0,1.0,1.0,,,,,,,,,0.0,training_resp,,126.56052739545704,54.12799208937213,1.0,,right,silver,0.0,261.0,2.0,right,2023_Nov_09_1806,habits_v_MRI,5.0,40.0,1.0,5.0,30.0,15.0,5.0,15.0,30.0,30.0,60.0,RR,59.87114969729606,
5.0,1.0,resp2,stim/right_resp_img.png,"[-0.5, 0]",right,stim/silver_coin.png,silver,,,,,training,,,silver,deval,,,,,0.0,0.0,0.0,0.0,0.0,1.0,1.0,1.0,,,,,,,,,0.0,training_resp,,126.8599531922955,54.42792168119922,1.0,,right,silver,0.0,261.0,2.0,right,2023_Nov_09_1806,habits_v_MRI,5.0,40.0,1.0,5.0,30.0,15.0,5.0,15.0,30.0,30.0,60.0,RR,59.87114969729606,
5.0,1.0,resp2,stim/right_resp_img.png,"[-0.5, 0]",right,stim/silver_coin.png,silver,,,,,training,,,silver,deval,,,,,0.0,0.0,0.0,0.0,0.0,1.0,1.0,1.0,,,,,,,,,0.0,training_resp,,127.16004582843745,54.72814745060168,1.0,,right,silver,0.0,261.0,2.0,right,2023_Nov_09_1806,habits_v_MRI,5.0,40.0,1.0,5.0,30.0,15.0,5.0,15.0,30.0,30.0,60.0,RR,59.87114969729606,
5.0,1.0,resp2,stim/right_resp_img.png,"[-0.5, 0]",right,stim/silver_coin.png,silver,,,,,training,,,silver,deval,,,,,0.0,0.0,0.0,0.0,0.0,1.0,1.0,1.0,,,,,,,,,0.0,training_resp,,127.45985430991276,55.02788203465752,1.0,,right,silver,0.0,261.0,2.0,right,2023_Nov_09_1806,habits_v_MRI,5.0,40.0,1.0,5.0,30.0,15.0,5.0,15.0,30.0,30.0,60.0,RR,59.87114969729606,
5.0,1.0,resp2,stim/right_resp_img.png,"[-0.5, 0]",right,stim/silver_coin.png,silver,,,,,training,,,silver,deval,,,,,0.0,0.0,0.0,0.0,0.0,1.0,1.0,1.0,,,,,,,,,0.0,training_resp,,127.75977246533148,55.32787408772856,1.0,,right,silver,0.0,261.0,2.0,right,2023_Nov_09_1806,habits_v_MRI,5.0,40.0,1.0,5.0,30.0,15.0,5.0,15.0,30.0,30.0,60.0,RR,59.87114969729606,
5.0,1.0,resp2,stim/right_resp_img.png,"[-0.5, 0]",right,stim/silver_coin.png,silver,,,,,training,,,silver,deval,,,,,0.0,0.0,0.0,0.0,0.0,1.0,1.0,1.0,,,,,,,,,0.0,training_resp,,128.04325628723018,55.61115586361848,1.0,,right,silver,0.0,261.0,2.0,right,2023_Nov_09_1806,habits_v_MRI,5.0,40.0,1.0,5.0,30.0,15.0,5.0,15.0,30.0,30.0,60.0,RR,59.87114969729606,
5.0,1.0,resp2,stim/right_resp_img.png,"[-0.5, 0]",right,stim/silver_coin.png,silver,,,,,training,,,silver,deval,,,,,0.0,0.0,0.0,0.0,0.0,1.0,1.0,1.0,,,,,,,,,0.0,training_resp,,128.3599234279245,55.92785584786907,1.0,,right,silver,0.0,261.0,2.0,right,2023_Nov_09_1806,habits_v_MRI,5.0,40.0,1.0,5.0,30.0,15.0,5.0,15.0,30.0,30.0,60.0,RR,59.87114969729606,
5.0,1.0,resp2,stim/right_resp_img.png,"[-0.5, 0]",right,stim/silver_coin.png,silver,,,,,training,,,silver,deval,,,,,0.0,0.0,0.0,0.0,0.0,1.0,1.0,1.0,,,,,,,,,0.0,training_resp,,128.65991401462816,56.22785464557819,1.0,,right,silver,0.0,261.0,2.0,right,2023_Nov_09_1806,habits_v_MRI,5.0,40.0,1.0,5.0,30.0,15.0,5.0,15.0,30.0,30.0,60.0,RR,59.87114969729606,
5.0,1.0,resp2,stim/right_resp_img.png,"[-0.5, 0]",right,stim/silver_coin.png,silver,,,,,training,,,silver,deval,,,,,0.0,0.0,0.0,0.0,0.0,1.0,1.0,1.0,,,,,,,,,0.0,training_resp,,128.97660725424066,56.544406834058464,1.0,,right,silver,0.0,261.0,2.0,right,2023_Nov_09_1806,habits_v_MRI,5.0,40.0,1.0,5.0,30.0,15.0,5.0,15.0,30.0,30.0,60.0,RR,59.87114969729606,
5.0,1.0,resp2,stim/right_resp_img.png,"[-0.5, 0]",right,stim/silver_coin.png,silver,,,,,training,,,silver,deval,,,,,0.0,0.0,0.0,0.0,0.0,1.0,1.0,1.0,,,,,,,,,0.0,training_resp,,129.27650928101502,56.84440299263224,1.0,,right,silver,0.0,261.0,2.0,right,2023_Nov_09_1806,habits_v_MRI,5.0,40.0,1.0,5.0,30.0,15.0,5.0,15.0,30.0,30.0,60.0,RR,59.87114969729606,
5.0,1.0,resp2,stim/right_resp_img.png,"[-0.5, 0]",right,stim/silver_coin.png,silver,,,,,training,,,silver,deval,,,,,0.0,0.0,0.0,0.0,0.0,1.0,1.0,1.0,,,,,,,,,0.0,training_resp,,129.59251339477487,57.16091178101488,1.0,,right,silver,0.0,261.0,2.0,right,2023_Nov_09_1806,habits_v_MRI,5.0,40.0,1.0,5.0,30.0,15.0,5.0,15.0,30.0,30.0,60.0,RR,59.87114969729606,
5.0,1.0,resp2,stim/right_resp_img.png,"[-0.5, 0]",right,stim/silver_coin.png,silver,,,,,training,,,silver,deval,,,,,0.0,0.0,0.0,0.0,0.0,1.0,1.0,1.0,,,,,,,,,0.0,training_resp,,129.89302595774643,57.46106189326383,1.0,,right,silver,0.0,261.0,2.0,right,2023_Nov_09_1806,habits_v_MRI,5.0,40.0,1.0,5.0,30.0,15.0,5.0,15.0,30.0,30.0,60.0,RR,59.87114969729606,
5.0,1.0,resp2,stim/right_resp_img.png,"[-0.5, 0]",right,stim/silver_coin.png,silver,,,,,training,,,silver,deval,,,,,0.0,0.0,0.0,0.0,0.0,1.0,1.0,1.0,,,,,,,,,0.0,training_resp,,130.20974676241167,57.77777800592594,1.0,21.0,right,silver,1.0,261.0,2.0,right,2023_Nov_09_1806,habits_v_MRI,5.0,40.0,1.0,5.0,30.0,15.0,5.0,15.0,30.0,30.0,60.0,RR,59.87114969729606,
5.0,1.0,resp2,stim/right_resp_img.png,"[-0.5, 0]",right,stim/silver_coin.png,silver,,,,,training,,,silver,deval,,,,,0.0,0.0,0.0,0.0,0.0,1.0,1.0,1.0,,,,,,,,,0.0,training_resp,,131.0434551073704,58.61112976470031,1.0,,right,silver,0.0,261.0,2.0,right,2023_Nov_09_1806,habits_v_MRI,5.0,40.0,1.0,5.0,30.0,15.0,5.0,15.0,30.0,30.0,60.0,RR,59.87114969729606,
5.0,1.0,resp2,stim/right_resp_img.png,"[-0.5, 0]",right,stim/silver_coin.png,silver,,,,,training,,,silver,deval,,,,,0.0,0.0,0.0,0.0,0.0,1.0,1.0,1.0,,,,,,,,,0.0,training_resp,,131.34279908868484,58.910931795137,1.0,,right,silver,0.0,261.0,2.0,right,2023_Nov_09_1806,habits_v_MRI,5.0,40.0,1.0,5.0,30.0,15.0,5.0,15.0,30.0,30.0,60.0,RR,59.87114969729606,
5.0,1.0,resp2,stim/right_resp_img.png,"[-0.5, 0]",right,stim/silver_coin.png,silver,,,,,training,,,silver,deval,,,,,0.0,0.0,0.0,0.0,0.0,1.0,1.0,1.0,,,,,,,,,0.0,training_resp,,131.65941139264032,59.22752591781318,1.0,,right,silver,0.0,261.0,2.0,right,2023_Nov_09_1806,habits_v_MRI,5.0,40.0,1.0,5.0,30.0,15.0,5.0,15.0,30.0,30.0,60.0,RR,59.87114969729606,
5.0,1.0,resp2,stim/right_resp_img.png,"[-0.5, 0]",right,stim/silver_coin.png,silver,,,,,training,,,silver,deval,,,,,0.0,0.0,0.0,0.0,0.0,1.0,1.0,1.0,,,,,,,,,0.0,training_resp,,131.95966971223243,59.527547295205295,1.0,,right,silver,0.0,261.0,2.0,right,2023_Nov_09_1806,habits_v_MRI,5.0,40.0,1.0,5.0,30.0,15.0,5.0,15.0,30.0,30.0,60.0,RR,59.87114969729606,
5.0,1.0,resp2,stim/right_resp_img.png,"[-0.5, 0]",right,stim/silver_coin.png,silver,,,,,training,,,silver,deval,,,,,0.0,0.0,0.0,0.0,0.0,1.0,1.0,1.0,,,,,,,,,0.0,ITI_start,25.0,132.11047040321864,59.67785152234137,,,,,,261.0,2.0,right,2023_Nov_09_1806,habits_v_MRI,5.0,40.0,1.0,5.0,30.0,15.0,5.0,15.0,30.0,30.0,60.0,RR,59.87114969729606,
5.0,0.0,resp1,stim/left_resp_img.png,"[0.5, 0]",left,stim/gold_coin.png,silver,,,,,training,,,gold,val,,,,,0.0,0.0,0.0,0.0,1.0,0.0,2.0,0.0,,,,,,,,,0.0,training_period_start,60.0,157.14784390106797,0.0,2.0,13.0,,,,261.0,2.0,right,2023_Nov_09_1806,habits_v_MRI,5.0,40.0,1.0,5.0,30.0,15.0,5.0,15.0,30.0,30.0,60.0,RR,59.87114969729606,
5.0,0.0,resp1,stim/left_resp_img.png,"[0.5, 0]",left,stim/gold_coin.png,silver,,,,,training,,,gold,val,,,,,0.0,0.0,0.0,0.0,1.0,0.0,2.0,0.0,,,,,,,,,0.0,training_resp,,158.20775504177436,1.082134425174445,2.0,,left,gold,0.0,261.0,2.0,right,2023_Nov_09_1806,habits_v_MRI,5.0,40.0,1.0,5.0,30.0,15.0,5.0,15.0,30.0,30.0,60.0,RR,59.87114969729606,
5.0,0.0,resp1,stim/left_resp_img.png,"[0.5, 0]",left,stim/gold_coin.png,silver,,,,,training,,,gold,val,,,,,0.0,0.0,0.0,0.0,1.0,0.0,2.0,0.0,,,,,,,,,0.0,training_resp,,158.52445062738843,1.3988153485115618,2.0,,left,gold,0.0,261.0,2.0,right,2023_Nov_09_1806,habits_v_MRI,5.0,40.0,1.0,5.0,30.0,15.0,5.0,15.0,30.0,30.0,60.0,RR,59.87114969729606,
5.0,0.0,resp1,stim/left_resp_img.png,"[0.5, 0]",left,stim/gold_coin.png,silver,,,,,training,,,gold,val,,,,,0.0,0.0,0.0,0.0,1.0,0.0,2.0,0.0,,,,,,,,,0.0,training_resp,,158.82442596554756,1.698820010991767,2.0,,left,gold,0.0,261.0,2.0,right,2023_Nov_09_1806,habits_v_MRI,5.0,40.0,1.0,5.0,30.0,15.0,5.0,15.0,30.0,30.0,60.0,RR,59.87114969729606,
5.0,0.0,resp1,stim/left_resp_img.png,"[0.5, 0]",left,stim/gold_coin.png,silver,,,,,training,,,gold,val,,,,,0.0,0.0,0.0,0.0,1.0,0.0,2.0,0.0,,,,,,,,,0.0,training_resp,,159.107852604473,1.982105306116864,2.0,,left,gold,0.0,261.0,2.0,right,2023_Nov_09_1806,habits_v_MRI,5.0,40.0,1.0,5.0,30.0,15.0,5.0,15.0,30.0,30.0,60.0,RR,59.87114969729606,
5.0,0.0,resp1,stim/left_resp_img.png,"[0.5, 0]",left,stim/gold_coin.png,silver,,,,,training,,,gold,val,,,,,0.0,0.0,0.0,0.0,1.0,0.0,2.0,0.0,,,,,,,,,0.0,training_resp,,159.37434815289453,2.248773575760424,2.0,,left,gold,0.0,261.0,2.0,right,2023_Nov_09_1806,habits_v_MRI,5.0,40.0,1.0,5.0,30.0,15.0,5.0,15.0,30.0,30.0,60.0,RR,59.87114969729606,
5.0,0.0,resp1,stim/left_resp_img.png,"[0.5, 0]",left,stim/gold_coin.png,silver,,,,,training,,,gold,val,,,,,0.0,0.0,0.0,0.0,1.0,0.0,2.0,0.0,,,,,,,,,0.0,training_resp,,159.64132432988845,2.5154345142655075,2.0,,left,gold,0.0,261.0,2.0,right,2023_Nov_09_1806,habits_v_MRI,5.0,40.0,1.0,5.0,30.0,15.0,5.0,15.0,30.0,30.0,60.0,RR,59.87114969729606,
5.0,0.0,resp1,stim/left_resp_img.png,"[0.5, 0]",left,stim/gold_coin.png,silver,,,,,training,,,gold,val,,,,,0.0,0.0,0.0,0.0,1.0,0.0,2.0,0.0,,,,,,,,,0.0,training_resp,,159.92432165821083,2.7987599838525057,2.0,,left,gold,0.0,261.0,2.0,right,2023_Nov_09_1806,habits_v_MRI,5.0,40.0,1.0,5.0,30.0,15.0,5.0,15.0,30.0,30.0,60.0,RR,59.87114969729606,
5.0,0.0,resp1,stim/left_resp_img.png,"[0.5, 0]",left,stim/gold_coin.png,silver,,,,,training,,,gold,val,,,,,0.0,0.0,0.0,0.0,1.0,0.0,2.0,0.0,,,,,,,,,0.0,training_resp,,160.19124534446746,3.0653696046210825,2.0,,left,gold,0.0,261.0,2.0,right,2023_Nov_09_1806,habits_v_MRI,5.0,40.0,1.0,5.0,30.0,15.0,5.0,15.0,30.0,30.0,60.0,RR,59.87114969729606,
5.0,0.0,resp1,stim/left_resp_img.png,"[0.5, 0]",left,stim/gold_coin.png,silver,,,,,training,,,gold,val,,,,,0.0,0.0,0.0,0.0,1.0,0.0,2.0,0.0,,,,,,,,,0.0,training_resp,,160.47432126221247,3.348662523785606,2.0,,left,gold,0.0,261.0,2.0,right,2023_Nov_09_1806,habits_v_MRI,5.0,40.0,1.0,5.0,30.0,15.0,5.0,15.0,30.0,30.0,60.0,RR,59.87114969729606,
5.0,0.0,resp1,stim/left_resp_img.png,"[0.5, 0]",left,stim/gold_coin.png,silver,,,,,training,,,gold,val,,,,,0.0,0.0,0.0,0.0,1.0,0.0,2.0,0.0,,,,,,,,,0.0,training_resp,,160.7582024312578,3.6323158412706102,2.0,,left,gold,0.0,261.0,2.0,right,2023_Nov_09_1806,habits_v_MRI,5.0,40.0,1.0,5.0,30.0,15.0,5.0,15.0,30.0,30.0,60.0,RR,59.87114969729606,
5.0,0.0,resp1,stim/left_resp_img.png,"[0.5, 0]",left,stim/gold_coin.png,silver,,,,,training,,,gold,val,,,,,0.0,0.0,0.0,0.0,1.0,0.0,2.0,0.0,,,,,,,,,0.0,training_resp,,161.04042764520273,3.915129598230124,2.0,,left,gold,0.0,261.0,2.0,right,2023_Nov_09_1806,habits_v_MRI,5.0,40.0,1.0,5.0,30.0,15.0,5.0,15.0,30.0,30.0,60.0,RR,59.87114969729606,
5.0,0.0,resp1,stim/left_resp_img.png,"[0.5, 0]",left,stim/gold_coin.png,silver,,,,,training,,,gold,val,,,,,0.0,0.0,0.0,0.0,1.0,0.0,2.0,0.0,,,,,,,,,0.0,training_resp,,161.32396835647523,4.198540988378227,2.0,,left,gold,0.0,261.0,2.0,right,2023_Nov_09_1806,habits_v_MRI,5.0,40.0,1.0,5.0,30.0,15.0,5.0,15.0,30.0,30.0,60.0,RR,59.87114969729606,
5.0,0.0,resp1,stim/left_resp_img.png,"[0.5, 0]",left,stim/gold_coin.png,silver,,,,,training,,,gold,val,,,,,0.0,0.0,0.0,0.0,1.0,0.0,2.0,0.0,,,,,,,,,0.0,training_resp,,161.6240422250703,4.498616616241634,2.0,5.0,left,gold,1.0,261.0,2.0,right,2023_Nov_09_1806,habits_v_MRI,5.0,40.0,1.0,5.0,30.0,15.0,5.0,15.0,30.0,30.0,60.0,RR,59.87114969729606,
5.0,0.0,resp1,stim/left_resp_img.png,"[0.5, 0]",left,stim/gold_coin.png,silver,,,,,training,,,gold,val,,,,,0.0,0.0,0.0,0.0,1.0,0.0,2.0,0.0,,,,,,,,,0.0,training_resp,,162.20810986845754,5.082262573298067,2.0,,left,gold,0.0,261.0,2.0,right,2023_Nov_09_1806,habits_v_MRI,5.0,40.0,1.0,5.0,30.0,15.0,5.0,15.0,30.0,30.0,60.0,RR,59.87114969729606,
5.0,0.0,resp1,stim/left_resp_img.png,"[0.5, 0]",left,stim/gold_coin.png,silver,,,,,training,,,gold,val,,,,,0.0,0.0,0.0,0.0,1.0,0.0,2.0,0.0,,,,,,,,,0.0,training_resp,,162.54095328692347,5.415147339459509,2.0,,left,gold,0.0,261.0,2.0,right,2023_Nov_09_1806,habits_v_MRI,5.0,40.0,1.0,5.0,30.0,15.0,5.0,15.0,30.0,30.0,60.0,RR,59.87114969729606,
5.0,0.0,resp1,stim/left_resp_img.png,"[0.5, 0]",left,stim/gold_coin.png,silver,,,,,training,,,gold,val,,,,,0.0,0.0,0.0,0.0,1.0,0.0,2.0,0.0,,,,,,,,,0.0,training_resp,,162.80823443899862,5.6822789364960045,2.0,,left,gold,0.0,261.0,2.0,right,2023_Nov_09_1806,habits_v_MRI,5.0,40.0,1.0,5.0,30.0,15.0,5.0,15.0,30.0,30.0,60.0,RR,59.87114969729606,
5.0,0.0,resp1,stim/left_resp_img.png,"[0.5, 0]",left,stim/gold_coin.png,silver,,,,,training,,,gold,val,,,,,0.0,0.0,0.0,0.0,1.0,0.0,2.0,0.0,,,,,,,,,0.0,training_resp,,163.1075663974043,5.982048123143613,2.0,,left,gold,0.0,261.0,2.0,right,2023_Nov_09_1806,habits_v_MRI,5.0,40.0,1.0,5.0,30.0,15.0,5.0,15.0,30.0,30.0,60.0,RR,59.87114969729606,
5.0,0.0,resp1,stim/left_resp_img.png,"[0.5, 0]",left,stim/gold_coin.png,silver,,,,,training,,,gold,val,,,,,0.0,0.0,0.0,0.0,1.0,0.0,2.0,0.0,,,,,,,,,0.0,training_resp,,163.4074062560685,6.281855138717219,2.0,10.0,left,gold,1.0,261.0,2.0,right,2023_Nov_09_1806,habits_v_MRI,5.0,40.0,1.0,5.0,30.0,15.0,5.0,15.0,30.0,30.0,60.0,RR,59.87114969729606,
5.0,0.0,resp1,stim/left_resp_img.png,"[0.5, 0]",left,stim/gold_coin.png,silver,,,,,training,,,gold,val,,,,,0.0,0.0,0.0,0.0,1.0,0.0,2.0,0.0,,,,,,,,,0.0,training_resp,,164.32419004989788,7.198392313206568,2.0,,left,gold,0.0,261.0,2.0,right,2023_Nov_09_1806,habits_v_MRI,5.0,40.0,1.0,5.0,30.0,15.0,5.0,15.0,30.0,30.0,60.0,RR,59.87114969729606,
5.0,0.0,resp1,stim/left_resp_img.png,"[0.5, 0]",left,stim/gold_coin.png,silver,,,,,training,,,gold,val,,,,,0.0,0.0,0.0,0.0,1.0,0.0,2.0,0.0,,,,,,,,,0.0,training_resp,,164.6073425046634,7.4817218880634755,2.0,,left,gold,0.0,261.0,2.0,right,2023_Nov_09_1806,habits_v_MRI,5.0,40.0,1.0,5.0,30.0,15.0,5.0,15.0,30.0,30.0,60.0,RR,59.87114969729606,
5.0,0.0,resp1,stim/left_resp_img.png,"[0.5, 0]",left,stim/gold_coin.png,silver,,,,,training,,,gold,val,,,,,0.0,0.0,0.0,0.0,1.0,0.0,2.0,0.0,,,,,,,,,0.0,training_resp,,164.87359055434354,7.748220955487341,2.0,,left,gold,0.0,261.0,2.0,right,2023_Nov_09_1806,habits_v_MRI,5.0,40.0,1.0,5.0,30.0,15.0,5.0,15.0,30.0,30.0,60.0,RR,59.87114969729606,
5.0,0.0,resp1,stim/left_resp_img.png,"[0.5, 0]",left,stim/gold_coin.png,silver,,,,,training,,,gold,val,,,,,0.0,0.0,0.0,0.0,1.0,0.0,2.0,0.0,,,,,,,,,0.0,training_resp,,165.15750485984609,8.03196429903619,2.0,,left,gold,0.0,261.0,2.0,right,2023_Nov_09_1806,habits_v_MRI,5.0,40.0,1.0,5.0,30.0,15.0,5.0,15.0,30.0,30.0,60.0,RR,59.87114969729606,
