list,trial_num_python,condition,stimulus,position,corrResp,coin_img,devalued_coin,stimulus_choice1,stimulus_choice2,position1,position2,phase,corrResp1,corrResp2,outcome,cond_val,outcome_choice1,outcome_choice2,cond_val1,cond_val2,blockLoop.thisRepN,blockLoop.thisTrialN,blockLoop.thisN,blockLoop.thisIndex,trialLoop.thisRepN,trialLoop.thisTrialN,trialLoop.thisN,trialLoop.thisIndex,choice_trialLoop.thisRepN,choice_trialLoop.thisTrialN,choice_trialLoop.thisN,choice_trialLoop.thisIndex,contingency_trialLoop.thisRepN,contingency_trialLoop.thisTrialN,contingency_trialLoop.thisN,contingency_trialLoop.thisIndex,run,event,duration,globalClock_t,routineClock_t,trial,nResp_untilRnf,resp,selected_coin,wasRnf,participant,task_ordering,hand,date,expName,n_repeat_training,credits_per_rnf,cost_response,min_resp_bet_rnf,max_resp_bet_rnf,mean_resp_bet_rnf,sigma_resp_bet_rnf,min_ITI,max_ITI,min_trial_duration,max_trial_duration,schedule,frameRate,Unnamed: 65
25.0,0.0,resp1,stim/right_resp_img.png,"[-0.5, 0]",right,stim/silver_coin.png,silver,,,,,training,,,silver,deval,,,,,0.0,0.0,0.0,0.0,0.0,0.0,0.0,0.0,,,,,,,,,0.0,instr_before_block,6.0,0.0040591100696474,,,,,,,89.0,2.0,right,2022_Mar_28_1818,habits_v_MRI,5.0,40.0,1.0,5.0,30.0,15.0,5.0,15.0,30.0,30.0,60.0,RR,59.99104558035764,
25.0,0.0,resp1,stim/right_resp_img.png,"[-0.5, 0]",right,stim/silver_coin.png,silver,,,,,training,,,silver,deval,,,,,0.0,0.0,0.0,0.0,0.0,0.0,0.0,0.0,,,,,,,,,0.0,training_period_start,37.5,6.034257869236171,0.0,0.0,12.0,,,,89.0,2.0,right,2022_Mar_28_1818,habits_v_MRI,5.0,40.0,1.0,5.0,30.0,15.0,5.0,15.0,30.0,30.0,60.0,RR,59.99104558035764,
25.0,0.0,resp1,stim/right_resp_img.png,"[-0.5, 0]",right,stim/silver_coin.png,silver,,,,,training,,,silver,deval,,,,,0.0,0.0,0.0,0.0,0.0,0.0,0.0,0.0,,,,,,,,,0.0,training_resp,,7.381209152634256,1.3654354541795328,0.0,,right,silver,0.0,89.0,2.0,right,2022_Mar_28_1818,habits_v_MRI,5.0,40.0,1.0,5.0,30.0,15.0,5.0,15.0,30.0,30.0,60.0,RR,59.99104558035764,
25.0,0.0,resp1,stim/right_resp_img.png,"[-0.5, 0]",right,stim/silver_coin.png,silver,,,,,training,,,silver,deval,,,,,0.0,0.0,0.0,0.0,0.0,0.0,0.0,0.0,,,,,,,,,0.0,training_resp,,8.014020967646502,1.9991478273877876,0.0,,right,silver,0.0,89.0,2.0,right,2022_Mar_28_1818,habits_v_MRI,5.0,40.0,1.0,5.0,30.0,15.0,5.0,15.0,30.0,30.0,60.0,RR,59.99104558035764,
25.0,0.0,resp1,stim/right_resp_img.png,"[-0.5, 0]",right,stim/silver_coin.png,silver,,,,,training,,,silver,deval,,,,,0.0,0.0,0.0,0.0,0.0,0.0,0.0,0.0,,,,,,,,,0.0,training_resp,,8.613529135589488,2.5986976362764835,0.0,,right,silver,0.0,89.0,2.0,right,2022_Mar_28_1818,habits_v_MRI,5.0,40.0,1.0,5.0,30.0,15.0,5.0,15.0,30.0,30.0,60.0,RR,59.99104558035764,
25.0,0.0,resp1,stim/right_resp_img.png,"[-0.5, 0]",right,stim/silver_coin.png,silver,,,,,training,,,silver,deval,,,,,0.0,0.0,0.0,0.0,0.0,0.0,0.0,0.0,,,,,,,,,0.0,training_resp,,9.24694972904399,3.232044038595632,0.0,,right,silver,0.0,89.0,2.0,right,2022_Mar_28_1818,habits_v_MRI,5.0,40.0,1.0,5.0,30.0,15.0,5.0,15.0,30.0,30.0,60.0,RR,59.99104558035764,
25.0,0.0,resp1,stim/right_resp_img.png,"[-0.5, 0]",right,stim/silver_coin.png,silver,,,,,training,,,silver,deval,,,,,0.0,0.0,0.0,0.0,0.0,0.0,0.0,0.0,,,,,,,,,0.0,training_resp,,9.88017150189262,3.865265811327845,0.0,,right,silver,0.0,89.0,2.0,right,2022_Mar_28_1818,habits_v_MRI,5.0,40.0,1.0,5.0,30.0,15.0,5.0,15.0,30.0,30.0,60.0,RR,59.99104558035764,
25.0,0.0,resp1,stim/right_resp_img.png,"[-0.5, 0]",right,stim/silver_coin.png,silver,,,,,training,,,silver,deval,,,,,0.0,0.0,0.0,0.0,0.0,0.0,0.0,0.0,,,,,,,,,0.0,training_resp,,10.646898469654843,4.631939115119167,0.0,,right,silver,0.0,89.0,2.0,right,2022_Mar_28_1818,habits_v_MRI,5.0,40.0,1.0,5.0,30.0,15.0,5.0,15.0,30.0,30.0,60.0,RR,59.99104558035764,
25.0,0.0,resp1,stim/right_resp_img.png,"[-0.5, 0]",right,stim/silver_coin.png,silver,,,,,training,,,silver,deval,,,,,0.0,0.0,0.0,0.0,0.0,0.0,0.0,0.0,,,,,,,,,0.0,training_resp,,11.397059388458729,5.3820481293369085,0.0,,right,silver,0.0,89.0,2.0,right,2022_Mar_28_1818,habits_v_MRI,5.0,40.0,1.0,5.0,30.0,15.0,5.0,15.0,30.0,30.0,60.0,RR,59.99104558035764,
25.0,0.0,resp1,stim/right_resp_img.png,"[-0.5, 0]",right,stim/silver_coin.png,silver,,,,,training,,,silver,deval,,,,,0.0,0.0,0.0,0.0,0.0,0.0,0.0,0.0,,,,,,,,,0.0,training_resp,,12.13000471831765,6.115166767500341,0.0,,right,silver,0.0,89.0,2.0,right,2022_Mar_28_1818,habits_v_MRI,5.0,40.0,1.0,5.0,30.0,15.0,5.0,15.0,30.0,30.0,60.0,RR,59.99104558035764,
25.0,0.0,resp1,stim/right_resp_img.png,"[-0.5, 0]",right,stim/silver_coin.png,silver,,,,,training,,,silver,deval,,,,,0.0,0.0,0.0,0.0,0.0,0.0,0.0,0.0,,,,,,,,,0.0,training_resp,,12.829972197301686,6.815146856126376,0.0,,right,silver,0.0,89.0,2.0,right,2022_Mar_28_1818,habits_v_MRI,5.0,40.0,1.0,5.0,30.0,15.0,5.0,15.0,30.0,30.0,60.0,RR,59.99104558035764,
25.0,0.0,resp1,stim/right_resp_img.png,"[-0.5, 0]",right,stim/silver_coin.png,silver,,,,,training,,,silver,deval,,,,,0.0,0.0,0.0,0.0,0.0,0.0,0.0,0.0,,,,,,,,,0.0,training_resp,,13.513203251291998,7.498364127590321,0.0,,right,silver,0.0,89.0,2.0,right,2022_Mar_28_1818,habits_v_MRI,5.0,40.0,1.0,5.0,30.0,15.0,5.0,15.0,30.0,30.0,60.0,RR,59.99104558035764,
25.0,0.0,resp1,stim/right_resp_img.png,"[-0.5, 0]",right,stim/silver_coin.png,silver,,,,,training,,,silver,deval,,,,,0.0,0.0,0.0,0.0,0.0,0.0,0.0,0.0,,,,,,,,,0.0,training_resp,,14.263167695258744,8.248303352389485,0.0,,right,silver,0.0,89.0,2.0,right,2022_Mar_28_1818,habits_v_MRI,5.0,40.0,1.0,5.0,30.0,15.0,5.0,15.0,30.0,30.0,60.0,RR,59.99104558035764,
25.0,0.0,resp1,stim/right_resp_img.png,"[-0.5, 0]",right,stim/silver_coin.png,silver,,,,,training,,,silver,deval,,,,,0.0,0.0,0.0,0.0,0.0,0.0,0.0,0.0,,,,,,,,,0.0,training_resp,,14.99645582959056,8.981616999139078,0.0,21.0,right,silver,1.0,89.0,2.0,right,2022_Mar_28_1818,habits_v_MRI,5.0,40.0,1.0,5.0,30.0,15.0,5.0,15.0,30.0,30.0,60.0,RR,59.99104558035764,
25.0,0.0,resp1,stim/right_resp_img.png,"[-0.5, 0]",right,stim/silver_coin.png,silver,,,,,training,,,silver,deval,,,,,0.0,0.0,0.0,0.0,0.0,0.0,0.0,0.0,,,,,,,,,0.0,training_resp,,16.779837113572285,10.764855472370982,0.0,,right,silver,0.0,89.0,2.0,right,2022_Mar_28_1818,habits_v_MRI,5.0,40.0,1.0,5.0,30.0,15.0,5.0,15.0,30.0,30.0,60.0,RR,59.99104558035764,
25.0,0.0,resp1,stim/right_resp_img.png,"[-0.5, 0]",right,stim/silver_coin.png,silver,,,,,training,,,silver,deval,,,,,0.0,0.0,0.0,0.0,0.0,0.0,0.0,0.0,,,,,,,,,0.0,training_resp,,17.41310756513849,11.39818017440848,0.0,,right,silver,0.0,89.0,2.0,right,2022_Mar_28_1818,habits_v_MRI,5.0,40.0,1.0,5.0,30.0,15.0,5.0,15.0,30.0,30.0,60.0,RR,59.99104558035764,
25.0,0.0,resp1,stim/right_resp_img.png,"[-0.5, 0]",right,stim/silver_coin.png,silver,,,,,training,,,silver,deval,,,,,0.0,0.0,0.0,0.0,0.0,0.0,0.0,0.0,,,,,,,,,0.0,training_resp,,18.01306586561259,11.998152843909338,0.0,,right,silver,0.0,89.0,2.0,right,2022_Mar_28_1818,habits_v_MRI,5.0,40.0,1.0,5.0,30.0,15.0,5.0,15.0,30.0,30.0,60.0,RR,59.99104558035764,
25.0,0.0,resp1,stim/right_resp_img.png,"[-0.5, 0]",right,stim/silver_coin.png,silver,,,,,training,,,silver,deval,,,,,0.0,0.0,0.0,0.0,0.0,0.0,0.0,0.0,,,,,,,,,0.0,training_resp,,18.612996307667345,12.598076541326009,0.0,,right,silver,0.0,89.0,2.0,right,2022_Mar_28_1818,habits_v_MRI,5.0,40.0,1.0,5.0,30.0,15.0,5.0,15.0,30.0,30.0,60.0,RR,59.99104558035764,
25.0,0.0,resp1,stim/right_resp_img.png,"[-0.5, 0]",right,stim/silver_coin.png,silver,,,,,training,,,silver,deval,,,,,0.0,0.0,0.0,0.0,0.0,0.0,0.0,0.0,,,,,,,,,0.0,training_resp,,19.262976498925127,13.248042363557031,0.0,,right,silver,0.0,89.0,2.0,right,2022_Mar_28_1818,habits_v_MRI,5.0,40.0,1.0,5.0,30.0,15.0,5.0,15.0,30.0,30.0,60.0,RR,59.99104558035764,
25.0,0.0,resp1,stim/right_resp_img.png,"[-0.5, 0]",right,stim/silver_coin.png,silver,,,,,training,,,silver,deval,,,,,0.0,0.0,0.0,0.0,0.0,0.0,0.0,0.0,,,,,,,,,0.0,training_resp,,19.89620706916321,13.881312521873042,0.0,,right,silver,0.0,89.0,2.0,right,2022_Mar_28_1818,habits_v_MRI,5.0,40.0,1.0,5.0,30.0,15.0,5.0,15.0,30.0,30.0,60.0,RR,59.99104558035764,
25.0,0.0,resp1,stim/right_resp_img.png,"[-0.5, 0]",right,stim/silver_coin.png,silver,,,,,training,,,silver,deval,,,,,0.0,0.0,0.0,0.0,0.0,0.0,0.0,0.0,,,,,,,,,0.0,training_resp,,20.47949668439105,14.46462706301827,0.0,,right,silver,0.0,89.0,2.0,right,2022_Mar_28_1818,habits_v_MRI,5.0,40.0,1.0,5.0,30.0,15.0,5.0,15.0,30.0,30.0,60.0,RR,59.99104558035764,
25.0,0.0,resp1,stim/right_resp_img.png,"[-0.5, 0]",right,stim/silver_coin.png,silver,,,,,training,,,silver,deval,,,,,0.0,0.0,0.0,0.0,0.0,0.0,0.0,0.0,,,,,,,,,0.0,training_resp,,21.079440322471783,15.064553986187091,0.0,,right,silver,0.0,89.0,2.0,right,2022_Mar_28_1818,habits_v_MRI,5.0,40.0,1.0,5.0,30.0,15.0,5.0,15.0,30.0,30.0,60.0,RR,59.99104558035764,
25.0,0.0,resp1,stim/right_resp_img.png,"[-0.5, 0]",right,stim/silver_coin.png,silver,,,,,training,,,silver,deval,,,,,0.0,0.0,0.0,0.0,0.0,0.0,0.0,0.0,,,,,,,,,0.0,training_resp,,21.72939852031413,15.71456702100113,0.0,,right,silver,0.0,89.0,2.0,right,2022_Mar_28_1818,habits_v_MRI,5.0,40.0,1.0,5.0,30.0,15.0,5.0,15.0,30.0,30.0,60.0,RR,59.99104558035764,
25.0,0.0,resp1,stim/right_resp_img.png,"[-0.5, 0]",right,stim/silver_coin.png,silver,,,,,training,,,silver,deval,,,,,0.0,0.0,0.0,0.0,0.0,0.0,0.0,0.0,,,,,,,,,0.0,training_resp,,22.29615258402191,16.281226366292685,0.0,,right,silver,0.0,89.0,2.0,right,2022_Mar_28_1818,habits_v_MRI,5.0,40.0,1.0,5.0,30.0,15.0,5.0,15.0,30.0,30.0,60.0,RR,59.99104558035764,
25.0,0.0,resp1,stim/right_resp_img.png,"[-0.5, 0]",right,stim/silver_coin.png,silver,,,,,training,,,silver,deval,,,,,0.0,0.0,0.0,0.0,0.0,0.0,0.0,0.0,,,,,,,,,0.0,training_resp,,22.87926625169348,16.864422729355283,0.0,,right,silver,0.0,89.0,2.0,right,2022_Mar_28_1818,habits_v_MRI,5.0,40.0,1.0,5.0,30.0,15.0,5.0,15.0,30.0,30.0,60.0,RR,59.99104558035764,
25.0,0.0,resp1,stim/right_resp_img.png,"[-0.5, 0]",right,stim/silver_coin.png,silver,,,,,training,,,silver,deval,,,,,0.0,0.0,0.0,0.0,0.0,0.0,0.0,0.0,,,,,,,,,0.0,training_resp,,23.44597808807157,17.431116677587852,0.0,,right,silver,0.0,89.0,2.0,right,2022_Mar_28_1818,habits_v_MRI,5.0,40.0,1.0,5.0,30.0,15.0,5.0,15.0,30.0,30.0,60.0,RR,59.99104558035764,
25.0,0.0,resp1,stim/right_resp_img.png,"[-0.5, 0]",right,stim/silver_coin.png,silver,,,,,training,,,silver,deval,,,,,0.0,0.0,0.0,0.0,0.0,0.0,0.0,0.0,,,,,,,,,0.0,training_resp,,24.12920591630973,18.11434773169458,0.0,,right,silver,0.0,89.0,2.0,right,2022_Mar_28_1818,habits_v_MRI,5.0,40.0,1.0,5.0,30.0,15.0,5.0,15.0,30.0,30.0,60.0,RR,59.99104558035764,
25.0,0.0,resp1,stim/right_resp_img.png,"[-0.5, 0]",right,stim/silver_coin.png,silver,,,,,training,,,silver,deval,,,,,0.0,0.0,0.0,0.0,0.0,0.0,0.0,0.0,,,,,,,,,0.0,training_resp,,24.76250686554704,18.747652786318213,0.0,,right,silver,0.0,89.0,2.0,right,2022_Mar_28_1818,habits_v_MRI,5.0,40.0,1.0,5.0,30.0,15.0,5.0,15.0,30.0,30.0,60.0,RR,59.99104558035764,
25.0,0.0,resp1,stim/right_resp_img.png,"[-0.5, 0]",right,stim/silver_coin.png,silver,,,,,training,,,silver,deval,,,,,0.0,0.0,0.0,0.0,0.0,0.0,0.0,0.0,,,,,,,,,0.0,training_resp,,25.39591748872772,19.381066635251045,0.0,,right,silver,0.0,89.0,2.0,right,2022_Mar_28_1818,habits_v_MRI,5.0,40.0,1.0,5.0,30.0,15.0,5.0,15.0,30.0,30.0,60.0,RR,59.99104558035764,
25.0,0.0,resp1,stim/right_resp_img.png,"[-0.5, 0]",right,stim/silver_coin.png,silver,,,,,training,,,silver,deval,,,,,0.0,0.0,0.0,0.0,0.0,0.0,0.0,0.0,,,,,,,,,0.0,training_resp,,26.04586864868179,20.030951814725995,0.0,,right,silver,0.0,89.0,2.0,right,2022_Mar_28_1818,habits_v_MRI,5.0,40.0,1.0,5.0,30.0,15.0,5.0,15.0,30.0,30.0,60.0,RR,59.99104558035764,
25.0,0.0,resp1,stim/right_resp_img.png,"[-0.5, 0]",right,stim/silver_coin.png,silver,,,,,training,,,silver,deval,,,,,0.0,0.0,0.0,0.0,0.0,0.0,0.0,0.0,,,,,,,,,0.0,training_resp,,26.66244197019841,20.647572642192245,0.0,,right,silver,0.0,89.0,2.0,right,2022_Mar_28_1818,habits_v_MRI,5.0,40.0,1.0,5.0,30.0,15.0,5.0,15.0,30.0,30.0,60.0,RR,59.99104558035764,
25.0,0.0,resp1,stim/right_resp_img.png,"[-0.5, 0]",right,stim/silver_coin.png,silver,,,,,training,,,silver,deval,,,,,0.0,0.0,0.0,0.0,0.0,0.0,0.0,0.0,,,,,,,,,0.0,training_resp,,27.29580479429569,21.28088473470416,0.0,,right,silver,0.0,89.0,2.0,right,2022_Mar_28_1818,habits_v_MRI,5.0,40.0,1.0,5.0,30.0,15.0,5.0,15.0,30.0,30.0,60.0,RR,59.99104558035764,
25.0,0.0,resp1,stim/right_resp_img.png,"[-0.5, 0]",right,stim/silver_coin.png,silver,,,,,training,,,silver,deval,,,,,0.0,0.0,0.0,0.0,0.0,0.0,0.0,0.0,,,,,,,,,0.0,training_resp,,27.89580854785163,21.88084802031517,0.0,,right,silver,0.0,89.0,2.0,right,2022_Mar_28_1818,habits_v_MRI,5.0,40.0,1.0,5.0,30.0,15.0,5.0,15.0,30.0,30.0,60.0,RR,59.99104558035764,
25.0,0.0,resp1,stim/right_resp_img.png,"[-0.5, 0]",right,stim/silver_coin.png,silver,,,,,training,,,silver,deval,,,,,0.0,0.0,0.0,0.0,0.0,0.0,0.0,0.0,,,,,,,,,0.0,training_resp,,28.545725397998467,22.53082850482315,0.0,,right,silver,0.0,89.0,2.0,right,2022_Mar_28_1818,habits_v_MRI,5.0,40.0,1.0,5.0,30.0,15.0,5.0,15.0,30.0,30.0,60.0,RR,59.99104558035764,
25.0,0.0,resp1,stim/right_resp_img.png,"[-0.5, 0]",right,stim/silver_coin.png,silver,,,,,training,,,silver,deval,,,,,0.0,0.0,0.0,0.0,0.0,0.0,0.0,0.0,,,,,,,,,0.0,training_resp,,29.16223039326724,23.14737191540189,0.0,8.0,right,silver,1.0,89.0,2.0,right,2022_Mar_28_1818,habits_v_MRI,5.0,40.0,1.0,5.0,30.0,15.0,5.0,15.0,30.0,30.0,60.0,RR,59.99104558035764,
25.0,0.0,resp1,stim/right_resp_img.png,"[-0.5, 0]",right,stim/silver_coin.png,silver,,,,,training,,,silver,deval,,,,,0.0,0.0,0.0,0.0,0.0,0.0,0.0,0.0,,,,,,,,,0.0,training_resp,,30.829008591128517,24.813977977843024,0.0,,right,silver,0.0,89.0,2.0,right,2022_Mar_28_1818,habits_v_MRI,5.0,40.0,1.0,5.0,30.0,15.0,5.0,15.0,30.0,30.0,60.0,RR,59.99104558035764,
25.0,0.0,resp1,stim/right_resp_img.png,"[-0.5, 0]",right,stim/silver_coin.png,silver,,,,,training,,,silver,deval,,,,,0.0,0.0,0.0,0.0,0.0,0.0,0.0,0.0,,,,,,,,,0.0,training_resp,,31.37887990020681,25.36395338922739,0.0,,right,silver,0.0,89.0,2.0,right,2022_Mar_28_1818,habits_v_MRI,5.0,40.0,1.0,5.0,30.0,15.0,5.0,15.0,30.0,30.0,60.0,RR,59.99104558035764,
25.0,0.0,resp1,stim/right_resp_img.png,"[-0.5, 0]",right,stim/silver_coin.png,silver,,,,,training,,,silver,deval,,,,,0.0,0.0,0.0,0.0,0.0,0.0,0.0,0.0,,,,,,,,,0.0,training_resp,,31.96205075085163,25.94718024984468,0.0,,right,silver,0.0,89.0,2.0,right,2022_Mar_28_1818,habits_v_MRI,5.0,40.0,1.0,5.0,30.0,15.0,5.0,15.0,30.0,30.0,60.0,RR,59.99104558035764,
25.0,0.0,resp1,stim/right_resp_img.png,"[-0.5, 0]",right,stim/silver_coin.png,silver,,,,,training,,,silver,deval,,,,,0.0,0.0,0.0,0.0,0.0,0.0,0.0,0.0,,,,,,,,,0.0,training_resp,,32.54539637605194,26.53048745985143,0.0,,right,silver,0.0,89.0,2.0,right,2022_Mar_28_1818,habits_v_MRI,5.0,40.0,1.0,5.0,30.0,15.0,5.0,15.0,30.0,30.0,60.0,RR,59.99104558035764,
25.0,0.0,resp1,stim/right_resp_img.png,"[-0.5, 0]",right,stim/silver_coin.png,silver,,,,,training,,,silver,deval,,,,,0.0,0.0,0.0,0.0,0.0,0.0,0.0,0.0,,,,,,,,,0.0,training_resp,,33.12888451886829,27.113855078467168,0.0,,right,silver,0.0,89.0,2.0,right,2022_Mar_28_1818,habits_v_MRI,5.0,40.0,1.0,5.0,30.0,15.0,5.0,15.0,30.0,30.0,60.0,RR,59.99104558035764,
25.0,0.0,resp1,stim/right_resp_img.png,"[-0.5, 0]",right,stim/silver_coin.png,silver,,,,,training,,,silver,deval,,,,,0.0,0.0,0.0,0.0,0.0,0.0,0.0,0.0,,,,,,,,,0.0,training_resp,,33.69524358026683,27.68039771192707,0.0,,right,silver,0.0,89.0,2.0,right,2022_Mar_28_1818,habits_v_MRI,5.0,40.0,1.0,5.0,30.0,15.0,5.0,15.0,30.0,30.0,60.0,RR,59.99104558035764,
25.0,0.0,resp1,stim/right_resp_img.png,"[-0.5, 0]",right,stim/silver_coin.png,silver,,,,,training,,,silver,deval,,,,,0.0,0.0,0.0,0.0,0.0,0.0,0.0,0.0,,,,,,,,,0.0,training_resp,,34.27863084641285,28.2637178247096,0.0,,right,silver,0.0,89.0,2.0,right,2022_Mar_28_1818,habits_v_MRI,5.0,40.0,1.0,5.0,30.0,15.0,5.0,15.0,30.0,30.0,60.0,RR,59.99104558035764,
25.0,0.0,resp1,stim/right_resp_img.png,"[-0.5, 0]",right,stim/silver_coin.png,silver,,,,,training,,,silver,deval,,,,,0.0,0.0,0.0,0.0,0.0,0.0,0.0,0.0,,,,,,,,,0.0,training_resp,,34.87867213541176,28.863748556934297,0.0,11.0,right,silver,1.0,89.0,2.0,right,2022_Mar_28_1818,habits_v_MRI,5.0,40.0,1.0,5.0,30.0,15.0,5.0,15.0,30.0,30.0,60.0,RR,59.99104558035764,
25.0,0.0,resp1,stim/right_resp_img.png,"[-0.5, 0]",right,stim/silver_coin.png,silver,,,,,training,,,silver,deval,,,,,0.0,0.0,0.0,0.0,0.0,0.0,0.0,0.0,,,,,,,,,0.0,training_resp,,36.34508682566229,30.330236558569595,0.0,,right,silver,0.0,89.0,2.0,right,2022_Mar_28_1818,habits_v_MRI,5.0,40.0,1.0,5.0,30.0,15.0,5.0,15.0,30.0,30.0,60.0,RR,59.99104558035764,
25.0,0.0,resp1,stim/right_resp_img.png,"[-0.5, 0]",right,stim/silver_coin.png,silver,,,,,training,,,silver,deval,,,,,0.0,0.0,0.0,0.0,0.0,0.0,0.0,0.0,,,,,,,,,0.0,training_resp,,36.8950833507115,30.88024334725924,0.0,,right,silver,0.0,89.0,2.0,right,2022_Mar_28_1818,habits_v_MRI,5.0,40.0,1.0,5.0,30.0,15.0,5.0,15.0,30.0,30.0,60.0,RR,59.99104558035764,
25.0,0.0,resp1,stim/right_resp_img.png,"[-0.5, 0]",right,stim/silver_coin.png,silver,,,,,training,,,silver,deval,,,,,0.0,0.0,0.0,0.0,0.0,0.0,0.0,0.0,,,,,,,,,0.0,training_resp,,37.46191189892125,31.44688011263497,0.0,,right,silver,0.0,89.0,2.0,right,2022_Mar_28_1818,habits_v_MRI,5.0,40.0,1.0,5.0,30.0,15.0,5.0,15.0,30.0,30.0,60.0,RR,59.99104558035764,
25.0,0.0,resp1,stim/right_resp_img.png,"[-0.5, 0]",right,stim/silver_coin.png,silver,,,,,training,,,silver,deval,,,,,0.0,0.0,0.0,0.0,0.0,0.0,0.0,0.0,,,,,,,,,0.0,training_resp,,38.02837535587605,32.01350514811929,0.0,,right,silver,0.0,89.0,2.0,right,2022_Mar_28_1818,habits_v_MRI,5.0,40.0,1.0,5.0,30.0,15.0,5.0,15.0,30.0,30.0,60.0,RR,59.99104558035764,
25.0,0.0,resp1,stim/right_resp_img.png,"[-0.5, 0]",right,stim/silver_coin.png,silver,,,,,training,,,silver,deval,,,,,0.0,0.0,0.0,0.0,0.0,0.0,0.0,0.0,,,,,,,,,0.0,training_resp,,38.59501564025413,32.580167719163,0.0,,right,silver,0.0,89.0,2.0,right,2022_Mar_28_1818,habits_v_MRI,5.0,40.0,1.0,5.0,30.0,15.0,5.0,15.0,30.0,30.0,60.0,RR,59.99104558035764,
25.0,0.0,resp1,stim/right_resp_img.png,"[-0.5, 0]",right,stim/silver_coin.png,silver,,,,,training,,,silver,deval,,,,,0.0,0.0,0.0,0.0,0.0,0.0,0.0,0.0,,,,,,,,,0.0,training_resp,,39.16167821118143,33.146787476260215,0.0,,right,silver,0.0,89.0,2.0,right,2022_Mar_28_1818,habits_v_MRI,5.0,40.0,1.0,5.0,30.0,15.0,5.0,15.0,30.0,30.0,60.0,RR,59.99104558035764,
25.0,0.0,resp1,stim/right_resp_img.png,"[-0.5, 0]",right,stim/silver_coin.png,silver,,,,,training,,,silver,deval,,,,,0.0,0.0,0.0,0.0,0.0,0.0,0.0,0.0,,,,,,,,,0.0,training_resp,,39.69492922059726,33.680057546589524,0.0,,right,silver,0.0,89.0,2.0,right,2022_Mar_28_1818,habits_v_MRI,5.0,40.0,1.0,5.0,30.0,15.0,5.0,15.0,30.0,30.0,60.0,RR,59.99104558035764,
25.0,0.0,resp1,stim/right_resp_img.png,"[-0.5, 0]",right,stim/silver_coin.png,silver,,,,,training,,,silver,deval,,,,,0.0,0.0,0.0,0.0,0.0,0.0,0.0,0.0,,,,,,,,,0.0,training_resp,,40.22822157770861,34.21337981487159,0.0,,right,silver,0.0,89.0,2.0,right,2022_Mar_28_1818,habits_v_MRI,5.0,40.0,1.0,5.0,30.0,15.0,5.0,15.0,30.0,30.0,60.0,RR,59.99104558035764,
25.0,0.0,resp1,stim/right_resp_img.png,"[-0.5, 0]",right,stim/silver_coin.png,silver,,,,,training,,,silver,deval,,,,,0.0,0.0,0.0,0.0,0.0,0.0,0.0,0.0,,,,,,,,,0.0,training_resp,,40.76158020843286,34.74665516370442,0.0,,right,silver,0.0,89.0,2.0,right,2022_Mar_28_1818,habits_v_MRI,5.0,40.0,1.0,5.0,30.0,15.0,5.0,15.0,30.0,30.0,60.0,RR,59.99104558035764,
25.0,0.0,resp1,stim/right_resp_img.png,"[-0.5, 0]",right,stim/silver_coin.png,silver,,,,,training,,,silver,deval,,,,,0.0,0.0,0.0,0.0,0.0,0.0,0.0,0.0,,,,,,,,,0.0,training_resp,,41.3281682949746,35.313317441381514,0.0,,right,silver,0.0,89.0,2.0,right,2022_Mar_28_1818,habits_v_MRI,5.0,40.0,1.0,5.0,30.0,15.0,5.0,15.0,30.0,30.0,60.0,RR,59.99104558035764,
25.0,0.0,resp1,stim/right_resp_img.png,"[-0.5, 0]",right,stim/silver_coin.png,silver,,,,,training,,,silver,deval,,,,,0.0,0.0,0.0,0.0,0.0,0.0,0.0,0.0,,,,,,,,,0.0,training_resp,,41.89480271434877,35.87989526428282,0.0,5.0,right,silver,1.0,89.0,2.0,right,2022_Mar_28_1818,habits_v_MRI,5.0,40.0,1.0,5.0,30.0,15.0,5.0,15.0,30.0,30.0,60.0,RR,59.99104558035764,
25.0,0.0,resp1,stim/right_resp_img.png,"[-0.5, 0]",right,stim/silver_coin.png,silver,,,,,training,,,silver,deval,,,,,0.0,0.0,0.0,0.0,0.0,0.0,0.0,0.0,,,,,,,,,0.0,ITI_start,25.0,43.19421472691465,37.17982075049076,,,,,,89.0,2.0,right,2022_Mar_28_1818,habits_v_MRI,5.0,40.0,1.0,5.0,30.0,15.0,5.0,15.0,30.0,30.0,60.0,RR,59.99104558035764,
25.0,1.0,resp2,stim/left_resp_img.png,"[0.5, 0]",left,stim/gold_coin.png,silver,,,,,training,,,gold,val,,,,,0.0,0.0,0.0,0.0,0.0,1.0,1.0,1.0,,,,,,,,,0.0,training_period_start,45.0,68.23130447219592,0.0,1.0,13.0,,,,89.0,2.0,right,2022_Mar_28_1818,habits_v_MRI,5.0,40.0,1.0,5.0,30.0,15.0,5.0,15.0,30.0,30.0,60.0,RR,59.99104558035764,
25.0,1.0,resp2,stim/left_resp_img.png,"[0.5, 0]",left,stim/gold_coin.png,silver,,,,,training,,,gold,val,,,,,0.0,0.0,0.0,0.0,0.0,1.0,1.0,1.0,,,,,,,,,0.0,training_resp,,69.24304574599955,1.0314925601705909,1.0,,left,gold,0.0,89.0,2.0,right,2022_Mar_28_1818,habits_v_MRI,5.0,40.0,1.0,5.0,30.0,15.0,5.0,15.0,30.0,30.0,60.0,RR,59.99104558035764,
25.0,1.0,resp2,stim/left_resp_img.png,"[0.5, 0]",left,stim/gold_coin.png,silver,,,,,training,,,gold,val,,,,,0.0,0.0,0.0,0.0,0.0,1.0,1.0,1.0,,,,,,,,,0.0,training_resp,,69.75965944759082,1.5481317741796374,1.0,,left,gold,0.0,89.0,2.0,right,2022_Mar_28_1818,habits_v_MRI,5.0,40.0,1.0,5.0,30.0,15.0,5.0,15.0,30.0,30.0,60.0,RR,59.99104558035764,
25.0,1.0,resp2,stim/left_resp_img.png,"[0.5, 0]",left,stim/gold_coin.png,silver,,,,,training,,,gold,val,,,,,0.0,0.0,0.0,0.0,0.0,1.0,1.0,1.0,,,,,,,,,0.0,training_resp,,70.27632534690201,2.0647322796285152,1.0,,left,gold,0.0,89.0,2.0,right,2022_Mar_28_1818,habits_v_MRI,5.0,40.0,1.0,5.0,30.0,15.0,5.0,15.0,30.0,30.0,60.0,RR,59.99104558035764,
25.0,1.0,resp2,stim/left_resp_img.png,"[0.5, 0]",left,stim/gold_coin.png,silver,,,,,training,,,gold,val,,,,,0.0,0.0,0.0,0.0,0.0,1.0,1.0,1.0,,,,,,,,,0.0,training_resp,,70.82644444878679,2.614801822928712,1.0,,left,gold,0.0,89.0,2.0,right,2022_Mar_28_1818,habits_v_MRI,5.0,40.0,1.0,5.0,30.0,15.0,5.0,15.0,30.0,30.0,60.0,RR,59.99104558035764,
25.0,1.0,resp2,stim/left_resp_img.png,"[0.5, 0]",left,stim/gold_coin.png,silver,,,,,training,,,gold,val,,,,,0.0,0.0,0.0,0.0,0.0,1.0,1.0,1.0,,,,,,,,,0.0,training_resp,,71.39290614624042,3.181301642442122,1.0,,left,gold,0.0,89.0,2.0,right,2022_Mar_28_1818,habits_v_MRI,5.0,40.0,1.0,5.0,30.0,15.0,5.0,15.0,30.0,30.0,60.0,RR,59.99104558035764,
25.0,1.0,resp2,stim/left_resp_img.png,"[0.5, 0]",left,stim/gold_coin.png,silver,,,,,training,,,gold,val,,,,,0.0,0.0,0.0,0.0,0.0,1.0,1.0,1.0,,,,,,,,,0.0,training_resp,,71.9595819133101,3.747992658289149,1.0,,left,gold,0.0,89.0,2.0,right,2022_Mar_28_1818,habits_v_MRI,5.0,40.0,1.0,5.0,30.0,15.0,5.0,15.0,30.0,30.0,60.0,RR,59.99104558035764,
25.0,1.0,resp2,stim/left_resp_img.png,"[0.5, 0]",left,stim/gold_coin.png,silver,,,,,training,,,gold,val,,,,,0.0,0.0,0.0,0.0,0.0,1.0,1.0,1.0,,,,,,,,,0.0,training_resp,,72.59284298110288,4.381269267993048,1.0,,left,gold,0.0,89.0,2.0,right,2022_Mar_28_1818,habits_v_MRI,5.0,40.0,1.0,5.0,30.0,15.0,5.0,15.0,30.0,30.0,60.0,RR,59.99104558035764,
25.0,1.0,resp2,stim/left_resp_img.png,"[0.5, 0]",left,stim/gold_coin.png,silver,,,,,training,,,gold,val,,,,,0.0,0.0,0.0,0.0,0.0,1.0,1.0,1.0,,,,,,,,,0.0,training_resp,,73.19271125504747,4.981205281801522,1.0,,left,gold,0.0,89.0,2.0,right,2022_Mar_28_1818,habits_v_MRI,5.0,40.0,1.0,5.0,30.0,15.0,5.0,15.0,30.0,30.0,60.0,RR,59.99104558035764,
25.0,1.0,resp2,stim/left_resp_img.png,"[0.5, 0]",left,stim/gold_coin.png,silver,,,,,training,,,gold,val,,,,,0.0,0.0,0.0,0.0,0.0,1.0,1.0,1.0,,,,,,,,,0.0,training_resp,,73.75948203378357,5.547909200424328,1.0,,left,gold,0.0,89.0,2.0,right,2022_Mar_28_1818,habits_v_MRI,5.0,40.0,1.0,5.0,30.0,15.0,5.0,15.0,30.0,30.0,60.0,RR,59.99104558035764,
25.0,1.0,resp2,stim/left_resp_img.png,"[0.5, 0]",left,stim/gold_coin.png,silver,,,,,training,,,gold,val,,,,,0.0,0.0,0.0,0.0,0.0,1.0,1.0,1.0,,,,,,,,,0.0,training_resp,,74.35957170836627,6.147829965455458,1.0,,left,gold,0.0,89.0,2.0,right,2022_Mar_28_1818,habits_v_MRI,5.0,40.0,1.0,5.0,30.0,15.0,5.0,15.0,30.0,30.0,60.0,RR,59.99104558035764,
25.0,1.0,resp2,stim/left_resp_img.png,"[0.5, 0]",left,stim/gold_coin.png,silver,,,,,training,,,gold,val,,,,,0.0,0.0,0.0,0.0,0.0,1.0,1.0,1.0,,,,,,,,,0.0,training_resp,,74.95944086206146,6.747803807840683,1.0,,left,gold,0.0,89.0,2.0,right,2022_Mar_28_1818,habits_v_MRI,5.0,40.0,1.0,5.0,30.0,15.0,5.0,15.0,30.0,30.0,60.0,RR,59.99104558035764,
25.0,1.0,resp2,stim/left_resp_img.png,"[0.5, 0]",left,stim/gold_coin.png,silver,,,,,training,,,gold,val,,,,,0.0,0.0,0.0,0.0,0.0,1.0,1.0,1.0,,,,,,,,,0.0,training_resp,,75.54260379506741,7.331069083767943,1.0,,left,gold,0.0,89.0,2.0,right,2022_Mar_28_1818,habits_v_MRI,5.0,40.0,1.0,5.0,30.0,15.0,5.0,15.0,30.0,30.0,60.0,RR,59.99104558035764,
25.0,1.0,resp2,stim/left_resp_img.png,"[0.5, 0]",left,stim/gold_coin.png,silver,,,,,training,,,gold,val,,,,,0.0,0.0,0.0,0.0,0.0,1.0,1.0,1.0,,,,,,,,,0.0,training_resp,,76.15927212836687,7.947670263703912,1.0,16.0,left,gold,1.0,89.0,2.0,right,2022_Mar_28_1818,habits_v_MRI,5.0,40.0,1.0,5.0,30.0,15.0,5.0,15.0,30.0,30.0,60.0,RR,59.99104558035764,
25.0,1.0,resp2,stim/left_resp_img.png,"[0.5, 0]",left,stim/gold_coin.png,silver,,,,,training,,,gold,val,,,,,0.0,0.0,0.0,0.0,0.0,1.0,1.0,1.0,,,,,,,,,0.0,training_resp,,77.30939469044097,9.09761277283542,1.0,,left,gold,0.0,89.0,2.0,right,2022_Mar_28_1818,habits_v_MRI,5.0,40.0,1.0,5.0,30.0,15.0,5.0,15.0,30.0,30.0,60.0,RR,59.99104558035764,
25.0,1.0,resp2,stim/left_resp_img.png,"[0.5, 0]",left,stim/gold_coin.png,silver,,,,,training,,,gold,val,,,,,0.0,0.0,0.0,0.0,0.0,1.0,1.0,1.0,,,,,,,,,0.0,training_resp,,77.85924840474036,9.647640088689514,1.0,,left,gold,0.0,89.0,2.0,right,2022_Mar_28_1818,habits_v_MRI,5.0,40.0,1.0,5.0,30.0,15.0,5.0,15.0,30.0,30.0,60.0,RR,59.99104558035764,
25.0,1.0,resp2,stim/left_resp_img.png,"[0.5, 0]",left,stim/gold_coin.png,silver,,,,,training,,,gold,val,,,,,0.0,0.0,0.0,0.0,0.0,1.0,1.0,1.0,,,,,,,,,0.0,training_resp,,78.3757310253568,10.164228864363396,1.0,,left,gold,0.0,89.0,2.0,right,2022_Mar_28_1818,habits_v_MRI,5.0,40.0,1.0,5.0,30.0,15.0,5.0,15.0,30.0,30.0,60.0,RR,59.99104558035764,
25.0,1.0,resp2,stim/left_resp_img.png,"[0.5, 0]",left,stim/gold_coin.png,silver,,,,,training,,,gold,val,,,,,0.0,0.0,0.0,0.0,0.0,1.0,1.0,1.0,,,,,,,,,0.0,training_resp,,78.92569529335015,10.714177003828809,1.0,,left,gold,0.0,89.0,2.0,right,2022_Mar_28_1818,habits_v_MRI,5.0,40.0,1.0,5.0,30.0,15.0,5.0,15.0,30.0,30.0,60.0,RR,59.99104558035764,
25.0,1.0,resp2,stim/left_resp_img.png,"[0.5, 0]",left,stim/gold_coin.png,silver,,,,,training,,,gold,val,,,,,0.0,0.0,0.0,0.0,0.0,1.0,1.0,1.0,,,,,,,,,0.0,training_resp,,79.52607058954891,11.31414204882458,1.0,,left,gold,0.0,89.0,2.0,right,2022_Mar_28_1818,habits_v_MRI,5.0,40.0,1.0,5.0,30.0,15.0,5.0,15.0,30.0,30.0,60.0,RR,59.99104558035764,
25.0,1.0,resp2,stim/left_resp_img.png,"[0.5, 0]",left,stim/gold_coin.png,silver,,,,,training,,,gold,val,,,,,0.0,0.0,0.0,0.0,0.0,1.0,1.0,1.0,,,,,,,,,0.0,training_resp,,80.09250736120157,11.880800807615742,1.0,,left,gold,0.0,89.0,2.0,right,2022_Mar_28_1818,habits_v_MRI,5.0,40.0,1.0,5.0,30.0,15.0,5.0,15.0,30.0,30.0,60.0,RR,59.99104558035764,
25.0,1.0,resp2,stim/left_resp_img.png,"[0.5, 0]",left,stim/gold_coin.png,silver,,,,,training,,,gold,val,,,,,0.0,0.0,0.0,0.0,0.0,1.0,1.0,1.0,,,,,,,,,0.0,training_resp,,80.6089483408723,12.397415975457989,1.0,,left,gold,0.0,89.0,2.0,right,2022_Mar_28_1818,habits_v_MRI,5.0,40.0,1.0,5.0,30.0,15.0,5.0,15.0,30.0,30.0,60.0,RR,59.99104558035764,
25.0,1.0,resp2,stim/left_resp_img.png,"[0.5, 0]",left,stim/gold_coin.png,silver,,,,,training,,,gold,val,,,,,0.0,0.0,0.0,0.0,0.0,1.0,1.0,1.0,,,,,,,,,0.0,training_resp,,81.15888211131096,12.947367927175948,1.0,,left,gold,0.0,89.0,2.0,right,2022_Mar_28_1818,habits_v_MRI,5.0,40.0,1.0,5.0,30.0,15.0,5.0,15.0,30.0,30.0,60.0,RR,59.99104558035764,
25.0,1.0,resp2,stim/left_resp_img.png,"[0.5, 0]",left,stim/gold_coin.png,silver,,,,,training,,,gold,val,,,,,0.0,0.0,0.0,0.0,0.0,1.0,1.0,1.0,,,,,,,,,0.0,training_resp,,81.69241639622487,13.480703684617763,1.0,,left,gold,0.0,89.0,2.0,right,2022_Mar_28_1818,habits_v_MRI,5.0,40.0,1.0,5.0,30.0,15.0,5.0,15.0,30.0,30.0,60.0,RR,59.99104558035764,
25.0,1.0,resp2,stim/left_resp_img.png,"[0.5, 0]",left,stim/gold_coin.png,silver,,,,,training,,,gold,val,,,,,0.0,0.0,0.0,0.0,0.0,1.0,1.0,1.0,,,,,,,,,0.0,training_resp,,82.25884525023866,14.047301155049354,1.0,,left,gold,0.0,89.0,2.0,right,2022_Mar_28_1818,habits_v_MRI,5.0,40.0,1.0,5.0,30.0,15.0,5.0,15.0,30.0,30.0,60.0,RR,59.99104558035764,
25.0,1.0,resp2,stim/left_resp_img.png,"[0.5, 0]",left,stim/gold_coin.png,silver,,,,,training,,,gold,val,,,,,0.0,0.0,0.0,0.0,0.0,1.0,1.0,1.0,,,,,,,,,0.0,training_resp,,82.79224698804319,14.580635446240194,1.0,,left,gold,0.0,89.0,2.0,right,2022_Mar_28_1818,habits_v_MRI,5.0,40.0,1.0,5.0,30.0,15.0,5.0,15.0,30.0,30.0,60.0,RR,59.99104558035764,
25.0,1.0,resp2,stim/left_resp_img.png,"[0.5, 0]",left,stim/gold_coin.png,silver,,,,,training,,,gold,val,,,,,0.0,0.0,0.0,0.0,0.0,1.0,1.0,1.0,,,,,,,,,0.0,training_resp,,83.34219630050939,15.130573028931394,1.0,,left,gold,0.0,89.0,2.0,right,2022_Mar_28_1818,habits_v_MRI,5.0,40.0,1.0,5.0,30.0,15.0,5.0,15.0,30.0,30.0,60.0,RR,59.99104558035764,
25.0,1.0,resp2,stim/left_resp_img.png,"[0.5, 0]",left,stim/gold_coin.png,silver,,,,,training,,,gold,val,,,,,0.0,0.0,0.0,0.0,0.0,1.0,1.0,1.0,,,,,,,,,0.0,training_resp,,83.92549735237844,15.713922759518027,1.0,,left,gold,0.0,89.0,2.0,right,2022_Mar_28_1818,habits_v_MRI,5.0,40.0,1.0,5.0,30.0,15.0,5.0,15.0,30.0,30.0,60.0,RR,59.99104558035764,
25.0,1.0,resp2,stim/left_resp_img.png,"[0.5, 0]",left,stim/gold_coin.png,silver,,,,,training,,,gold,val,,,,,0.0,0.0,0.0,0.0,0.0,1.0,1.0,1.0,,,,,,,,,0.0,training_resp,,84.54206129012164,16.330509863677435,1.0,,left,gold,0.0,89.0,2.0,right,2022_Mar_28_1818,habits_v_MRI,5.0,40.0,1.0,5.0,30.0,15.0,5.0,15.0,30.0,30.0,60.0,RR,59.99104558035764,
25.0,1.0,resp2,stim/left_resp_img.png,"[0.5, 0]",left,stim/gold_coin.png,silver,,,,,training,,,gold,val,,,,,0.0,0.0,0.0,0.0,0.0,1.0,1.0,1.0,,,,,,,,,0.0,training_resp,,85.10863764677197,16.897131380275823,1.0,,left,gold,0.0,89.0,2.0,right,2022_Mar_28_1818,habits_v_MRI,5.0,40.0,1.0,5.0,30.0,15.0,5.0,15.0,30.0,30.0,60.0,RR,59.99104558035764,
25.0,1.0,resp2,stim/left_resp_img.png,"[0.5, 0]",left,stim/gold_coin.png,silver,,,,,training,,,gold,val,,,,,0.0,0.0,0.0,0.0,0.0,1.0,1.0,1.0,,,,,,,,,0.0,training_resp,,85.6754374569282,17.463837644900195,1.0,25.0,left,gold,1.0,89.0,2.0,right,2022_Mar_28_1818,habits_v_MRI,5.0,40.0,1.0,5.0,30.0,15.0,5.0,15.0,30.0,30.0,60.0,RR,59.99104558035764,
25.0,1.0,resp2,stim/left_resp_img.png,"[0.5, 0]",left,stim/gold_coin.png,silver,,,,,training,,,gold,val,,,,,0.0,0.0,0.0,0.0,0.0,1.0,1.0,1.0,,,,,,,,,0.0,training_resp,,86.85871821606997,18.647171774879094,1.0,,left,gold,0.0,89.0,2.0,right,2022_Mar_28_1818,habits_v_MRI,5.0,40.0,1.0,5.0,30.0,15.0,5.0,15.0,30.0,30.0,60.0,RR,59.99104558035764,
25.0,1.0,resp2,stim/left_resp_img.png,"[0.5, 0]",left,stim/gold_coin.png,silver,,,,,training,,,gold,val,,,,,0.0,0.0,0.0,0.0,0.0,1.0,1.0,1.0,,,,,,,,,0.0,training_resp,,87.39227566751651,19.18030900496524,1.0,,left,gold,0.0,89.0,2.0,right,2022_Mar_28_1818,habits_v_MRI,5.0,40.0,1.0,5.0,30.0,15.0,5.0,15.0,30.0,30.0,60.0,RR,59.99104558035764,
25.0,1.0,resp2,stim/left_resp_img.png,"[0.5, 0]",left,stim/gold_coin.png,silver,,,,,training,,,gold,val,,,,,0.0,0.0,0.0,0.0,0.0,1.0,1.0,1.0,,,,,,,,,0.0,training_resp,,87.90849641954992,19.6969405944692,1.0,,left,gold,0.0,89.0,2.0,right,2022_Mar_28_1818,habits_v_MRI,5.0,40.0,1.0,5.0,30.0,15.0,5.0,15.0,30.0,30.0,60.0,RR,59.99104558035764,
25.0,1.0,resp2,stim/left_resp_img.png,"[0.5, 0]",left,stim/gold_coin.png,silver,,,,,training,,,gold,val,,,,,0.0,0.0,0.0,0.0,0.0,1.0,1.0,1.0,,,,,,,,,0.0,training_resp,,88.47528039442841,20.26366914587561,1.0,,left,gold,0.0,89.0,2.0,right,2022_Mar_28_1818,habits_v_MRI,5.0,40.0,1.0,5.0,30.0,15.0,5.0,15.0,30.0,30.0,60.0,RR,59.99104558035764,
25.0,1.0,resp2,stim/left_resp_img.png,"[0.5, 0]",left,stim/gold_coin.png,silver,,,,,training,,,gold,val,,,,,0.0,0.0,0.0,0.0,0.0,1.0,1.0,1.0,,,,,,,,,0.0,training_resp,,88.97522863652557,20.76358307816554,1.0,,left,gold,0.0,89.0,2.0,right,2022_Mar_28_1818,habits_v_MRI,5.0,40.0,1.0,5.0,30.0,15.0,5.0,15.0,30.0,30.0,60.0,RR,59.99104558035764,
25.0,1.0,resp2,stim/left_resp_img.png,"[0.5, 0]",left,stim/gold_coin.png,silver,,,,,training,,,gold,val,,,,,0.0,0.0,0.0,0.0,0.0,1.0,1.0,1.0,,,,,,,,,0.0,training_resp,,89.52520052879117,21.31355614354834,1.0,,left,gold,0.0,89.0,2.0,right,2022_Mar_28_1818,habits_v_MRI,5.0,40.0,1.0,5.0,30.0,15.0,5.0,15.0,30.0,30.0,60.0,RR,59.99104558035764,
25.0,1.0,resp2,stim/left_resp_img.png,"[0.5, 0]",left,stim/gold_coin.png,silver,,,,,training,,,gold,val,,,,,0.0,0.0,0.0,0.0,0.0,1.0,1.0,1.0,,,,,,,,,0.0,training_resp,,90.07516538328493,21.863522170926444,1.0,,left,gold,0.0,89.0,2.0,right,2022_Mar_28_1818,habits_v_MRI,5.0,40.0,1.0,5.0,30.0,15.0,5.0,15.0,30.0,30.0,60.0,RR,59.99104558035764,
25.0,1.0,resp2,stim/left_resp_img.png,"[0.5, 0]",left,stim/gold_coin.png,silver,,,,,training,,,gold,val,,,,,0.0,0.0,0.0,0.0,0.0,1.0,1.0,1.0,,,,,,,,,0.0,training_resp,,90.62508918333332,22.4134500764776,1.0,,left,gold,0.0,89.0,2.0,right,2022_Mar_28_1818,habits_v_MRI,5.0,40.0,1.0,5.0,30.0,15.0,5.0,15.0,30.0,30.0,60.0,RR,59.99104558035764,
25.0,1.0,resp2,stim/left_resp_img.png,"[0.5, 0]",left,stim/gold_coin.png,silver,,,,,training,,,gold,val,,,,,0.0,0.0,0.0,0.0,0.0,1.0,1.0,1.0,,,,,,,,,0.0,training_resp,,91.141702005174,22.93013708945364,1.0,,left,gold,0.0,89.0,2.0,right,2022_Mar_28_1818,habits_v_MRI,5.0,40.0,1.0,5.0,30.0,15.0,5.0,15.0,30.0,30.0,60.0,RR,59.99104558035764,
25.0,1.0,resp2,stim/left_resp_img.png,"[0.5, 0]",left,stim/gold_coin.png,silver,,,,,training,,,gold,val,,,,,0.0,0.0,0.0,0.0,0.0,1.0,1.0,1.0,,,,,,,,,0.0,training_resp,,91.70832792040892,23.49675039516296,1.0,,left,gold,0.0,89.0,2.0,right,2022_Mar_28_1818,habits_v_MRI,5.0,40.0,1.0,5.0,30.0,15.0,5.0,15.0,30.0,30.0,60.0,RR,59.99104558035764,
25.0,1.0,resp2,stim/left_resp_img.png,"[0.5, 0]",left,stim/gold_coin.png,silver,,,,,training,,,gold,val,,,,,0.0,0.0,0.0,0.0,0.0,1.0,1.0,1.0,,,,,,,,,0.0,training_resp,,92.25832239282316,24.046727859182283,1.0,,left,gold,0.0,89.0,2.0,right,2022_Mar_28_1818,habits_v_MRI,5.0,40.0,1.0,5.0,30.0,15.0,5.0,15.0,30.0,30.0,60.0,RR,59.99104558035764,
25.0,1.0,resp2,stim/left_resp_img.png,"[0.5, 0]",left,stim/gold_coin.png,silver,,,,,training,,,gold,val,,,,,0.0,0.0,0.0,0.0,0.0,1.0,1.0,1.0,,,,,,,,,0.0,training_resp,,92.80829487158915,24.596666028373875,1.0,,left,gold,0.0,89.0,2.0,right,2022_Mar_28_1818,habits_v_MRI,5.0,40.0,1.0,5.0,30.0,15.0,5.0,15.0,30.0,30.0,60.0,RR,59.99104558035764,
25.0,1.0,resp2,stim/left_resp_img.png,"[0.5, 0]",left,stim/gold_coin.png,silver,,,,,training,,,gold,val,,,,,0.0,0.0,0.0,0.0,0.0,1.0,1.0,1.0,,,,,,,,,0.0,training_resp,,93.3914959266549,25.17993159743492,1.0,,left,gold,0.0,89.0,2.0,right,2022_Mar_28_1818,habits_v_MRI,5.0,40.0,1.0,5.0,30.0,15.0,5.0,15.0,30.0,30.0,60.0,RR,59.99104558035764,
25.0,1.0,resp2,stim/left_resp_img.png,"[0.5, 0]",left,stim/gold_coin.png,silver,,,,,training,,,gold,val,,,,,0.0,0.0,0.0,0.0,0.0,1.0,1.0,1.0,,,,,,,,,0.0,training_resp,,93.97487996704876,25.763310359441675,1.0,,left,gold,0.0,89.0,2.0,right,2022_Mar_28_1818,habits_v_MRI,5.0,40.0,1.0,5.0,30.0,15.0,5.0,15.0,30.0,30.0,60.0,RR,59.99104558035764,
25.0,1.0,resp2,stim/left_resp_img.png,"[0.5, 0]",left,stim/gold_coin.png,silver,,,,,training,,,gold,val,,,,,0.0,0.0,0.0,0.0,0.0,1.0,1.0,1.0,,,,,,,,,0.0,training_resp,,94.55831884453072,26.34662841958925,1.0,,left,gold,0.0,89.0,2.0,right,2022_Mar_28_1818,habits_v_MRI,5.0,40.0,1.0,5.0,30.0,15.0,5.0,15.0,30.0,30.0,60.0,RR,59.99104558035764,
25.0,1.0,resp2,stim/left_resp_img.png,"[0.5, 0]",left,stim/gold_coin.png,silver,,,,,training,,,gold,val,,,,,0.0,0.0,0.0,0.0,0.0,1.0,1.0,1.0,,,,,,,,,0.0,training_resp,,95.12470898998436,26.913148766267117,1.0,,left,gold,0.0,89.0,2.0,right,2022_Mar_28_1818,habits_v_MRI,5.0,40.0,1.0,5.0,30.0,15.0,5.0,15.0,30.0,30.0,60.0,RR,59.99104558035764,
25.0,1.0,resp2,stim/left_resp_img.png,"[0.5, 0]",left,stim/gold_coin.png,silver,,,,,training,,,gold,val,,,,,0.0,0.0,0.0,0.0,0.0,1.0,1.0,1.0,,,,,,,,,0.0,training_resp,,95.75805979105644,27.546465844032355,1.0,,left,gold,0.0,89.0,2.0,right,2022_Mar_28_1818,habits_v_MRI,5.0,40.0,1.0,5.0,30.0,15.0,5.0,15.0,30.0,30.0,60.0,RR,59.99104558035764,
25.0,1.0,resp2,stim/left_resp_img.png,"[0.5, 0]",left,stim/gold_coin.png,silver,,,,,training,,,gold,val,,,,,0.0,0.0,0.0,0.0,0.0,1.0,1.0,1.0,,,,,,,,,0.0,training_resp,,96.35811368958092,28.14648132736329,1.0,,left,gold,0.0,89.0,2.0,right,2022_Mar_28_1818,habits_v_MRI,5.0,40.0,1.0,5.0,30.0,15.0,5.0,15.0,30.0,30.0,60.0,RR,59.99104558035764,
25.0,1.0,resp2,stim/left_resp_img.png,"[0.5, 0]",left,stim/gold_coin.png,silver,,,,,training,,,gold,val,,,,,0.0,0.0,0.0,0.0,0.0,1.0,1.0,1.0,,,,,,,,,0.0,training_resp,,96.92461409559472,28.71305768401362,1.0,,left,gold,0.0,89.0,2.0,right,2022_Mar_28_1818,habits_v_MRI,5.0,40.0,1.0,5.0,30.0,15.0,5.0,15.0,30.0,30.0,60.0,RR,59.99104558035764,
25.0,1.0,resp2,stim/left_resp_img.png,"[0.5, 0]",left,stim/gold_coin.png,silver,,,,,training,,,gold,val,,,,,0.0,0.0,0.0,0.0,0.0,1.0,1.0,1.0,,,,,,,,,0.0,training_resp,,97.4745358430082,29.26299966534134,1.0,,left,gold,0.0,89.0,2.0,right,2022_Mar_28_1818,habits_v_MRI,5.0,40.0,1.0,5.0,30.0,15.0,5.0,15.0,30.0,30.0,60.0,RR,59.99104558035764,
25.0,1.0,resp2,stim/left_resp_img.png,"[0.5, 0]",left,stim/gold_coin.png,silver,,,,,training,,,gold,val,,,,,0.0,0.0,0.0,0.0,0.0,1.0,1.0,1.0,,,,,,,,,0.0,training_resp,,98.09114552708344,29.879648057976738,1.0,,left,gold,0.0,89.0,2.0,right,2022_Mar_28_1818,habits_v_MRI,5.0,40.0,1.0,5.0,30.0,15.0,5.0,15.0,30.0,30.0,60.0,RR,59.99104558035764,
25.0,1.0,resp2,stim/left_resp_img.png,"[0.5, 0]",left,stim/gold_coin.png,silver,,,,,training,,,gold,val,,,,,0.0,0.0,0.0,0.0,0.0,1.0,1.0,1.0,,,,,,,,,0.0,training_resp,,98.72451920120513,30.51293141231872,1.0,,left,gold,0.0,89.0,2.0,right,2022_Mar_28_1818,habits_v_MRI,5.0,40.0,1.0,5.0,30.0,15.0,5.0,15.0,30.0,30.0,60.0,RR,59.99104558035764,
25.0,1.0,resp2,stim/left_resp_img.png,"[0.5, 0]",left,stim/gold_coin.png,silver,,,,,training,,,gold,val,,,,,0.0,0.0,0.0,0.0,0.0,1.0,1.0,1.0,,,,,,,,,0.0,training_resp,,99.32442706334405,31.112895284430124,1.0,,left,gold,0.0,89.0,2.0,right,2022_Mar_28_1818,habits_v_MRI,5.0,40.0,1.0,5.0,30.0,15.0,5.0,15.0,30.0,30.0,60.0,RR,59.99104558035764,
25.0,1.0,resp2,stim/left_resp_img.png,"[0.5, 0]",left,stim/gold_coin.png,silver,,,,,training,,,gold,val,,,,,0.0,0.0,0.0,0.0,0.0,1.0,1.0,1.0,,,,,,,,,0.0,training_resp,,99.94114466197787,31.729572708369236,1.0,,left,gold,0.0,89.0,2.0,right,2022_Mar_28_1818,habits_v_MRI,5.0,40.0,1.0,5.0,30.0,15.0,5.0,15.0,30.0,30.0,60.0,RR,59.99104558035764,
25.0,1.0,resp2,stim/left_resp_img.png,"[0.5, 0]",left,stim/gold_coin.png,silver,,,,,training,,,gold,val,,,,,0.0,0.0,0.0,0.0,0.0,1.0,1.0,1.0,,,,,,,,,0.0,training_resp,,100.52429410570768,32.31279634335078,1.0,25.0,left,gold,1.0,89.0,2.0,right,2022_Mar_28_1818,habits_v_MRI,5.0,40.0,1.0,5.0,30.0,15.0,5.0,15.0,30.0,30.0,60.0,RR,59.99104558035764,
25.0,1.0,resp2,stim/left_resp_img.png,"[0.5, 0]",left,stim/gold_coin.png,silver,,,,,training,,,gold,val,,,,,0.0,0.0,0.0,0.0,0.0,1.0,1.0,1.0,,,,,,,,,0.0,training_resp,,102.42439460102467,34.21276839694474,1.0,,left,gold,0.0,89.0,2.0,right,2022_Mar_28_1818,habits_v_MRI,5.0,40.0,1.0,5.0,30.0,15.0,5.0,15.0,30.0,30.0,60.0,RR,59.99104558035764,
25.0,1.0,resp2,stim/left_resp_img.png,"[0.5, 0]",left,stim/gold_coin.png,silver,,,,,training,,,gold,val,,,,,0.0,0.0,0.0,0.0,0.0,1.0,1.0,1.0,,,,,,,,,0.0,training_resp,,102.99095922790002,34.7793737850152,1.0,,left,gold,0.0,89.0,2.0,right,2022_Mar_28_1818,habits_v_MRI,5.0,40.0,1.0,5.0,30.0,15.0,5.0,15.0,30.0,30.0,60.0,RR,59.99104558035764,
25.0,1.0,resp2,stim/left_resp_img.png,"[0.5, 0]",left,stim/gold_coin.png,silver,,,,,training,,,gold,val,,,,,0.0,0.0,0.0,0.0,0.0,1.0,1.0,1.0,,,,,,,,,0.0,training_resp,,103.49091744038742,35.2793375691399,1.0,,left,gold,0.0,89.0,2.0,right,2022_Mar_28_1818,habits_v_MRI,5.0,40.0,1.0,5.0,30.0,15.0,5.0,15.0,30.0,30.0,60.0,RR,59.99104558035764,
25.0,1.0,resp2,stim/left_resp_img.png,"[0.5, 0]",left,stim/gold_coin.png,silver,,,,,training,,,gold,val,,,,,0.0,0.0,0.0,0.0,0.0,1.0,1.0,1.0,,,,,,,,,0.0,training_resp,,104.0241778336931,35.81266101030633,1.0,,left,gold,0.0,89.0,2.0,right,2022_Mar_28_1818,habits_v_MRI,5.0,40.0,1.0,5.0,30.0,15.0,5.0,15.0,30.0,30.0,60.0,RR,59.99104558035764,
25.0,1.0,resp2,stim/left_resp_img.png,"[0.5, 0]",left,stim/gold_coin.png,silver,,,,,training,,,gold,val,,,,,0.0,0.0,0.0,0.0,0.0,1.0,1.0,1.0,,,,,,,,,0.0,training_resp,,104.55733793682884,36.34585190436337,1.0,,left,gold,0.0,89.0,2.0,right,2022_Mar_28_1818,habits_v_MRI,5.0,40.0,1.0,5.0,30.0,15.0,5.0,15.0,30.0,30.0,60.0,RR,59.99104558035764,
25.0,1.0,resp2,stim/left_resp_img.png,"[0.5, 0]",left,stim/gold_coin.png,silver,,,,,training,,,gold,val,,,,,0.0,0.0,0.0,0.0,0.0,1.0,1.0,1.0,,,,,,,,,0.0,training_resp,,105.10739281785207,36.89586221193895,1.0,,left,gold,0.0,89.0,2.0,right,2022_Mar_28_1818,habits_v_MRI,5.0,40.0,1.0,5.0,30.0,15.0,5.0,15.0,30.0,30.0,60.0,RR,59.99104558035764,
25.0,1.0,resp2,stim/left_resp_img.png,"[0.5, 0]",left,stim/gold_coin.png,silver,,,,,training,,,gold,val,,,,,0.0,0.0,0.0,0.0,0.0,1.0,1.0,1.0,,,,,,,,,0.0,training_resp,,105.72409839334432,37.51251617609523,1.0,,left,gold,0.0,89.0,2.0,right,2022_Mar_28_1818,habits_v_MRI,5.0,40.0,1.0,5.0,30.0,15.0,5.0,15.0,30.0,30.0,60.0,RR,59.99104558035764,
25.0,1.0,resp2,stim/left_resp_img.png,"[0.5, 0]",left,stim/gold_coin.png,silver,,,,,training,,,gold,val,,,,,0.0,0.0,0.0,0.0,0.0,1.0,1.0,1.0,,,,,,,,,0.0,training_resp,,106.29066331346984,38.07911833852995,1.0,,left,gold,0.0,89.0,2.0,right,2022_Mar_28_1818,habits_v_MRI,5.0,40.0,1.0,5.0,30.0,15.0,5.0,15.0,30.0,30.0,60.0,RR,59.99104558035764,
25.0,1.0,resp2,stim/left_resp_img.png,"[0.5, 0]",left,stim/gold_coin.png,silver,,,,,training,,,gold,val,,,,,0.0,0.0,0.0,0.0,0.0,1.0,1.0,1.0,,,,,,,,,0.0,training_resp,,106.92408566642553,38.71248526801355,1.0,,left,gold,0.0,89.0,2.0,right,2022_Mar_28_1818,habits_v_MRI,5.0,40.0,1.0,5.0,30.0,15.0,5.0,15.0,30.0,30.0,60.0,RR,59.99104558035764,
25.0,1.0,resp2,stim/left_resp_img.png,"[0.5, 0]",left,stim/gold_coin.png,silver,,,,,training,,,gold,val,,,,,0.0,0.0,0.0,0.0,0.0,1.0,1.0,1.0,,,,,,,,,0.0,training_resp,,107.57400926121043,39.36244522524066,1.0,,left,gold,0.0,89.0,2.0,right,2022_Mar_28_1818,habits_v_MRI,5.0,40.0,1.0,5.0,30.0,15.0,5.0,15.0,30.0,30.0,60.0,RR,59.99104558035764,
25.0,1.0,resp2,stim/left_resp_img.png,"[0.5, 0]",left,stim/gold_coin.png,silver,,,,,training,,,gold,val,,,,,0.0,0.0,0.0,0.0,0.0,1.0,1.0,1.0,,,,,,,,,0.0,training_resp,,108.17391712334938,39.96234487649053,1.0,,left,gold,0.0,89.0,2.0,right,2022_Mar_28_1818,habits_v_MRI,5.0,40.0,1.0,5.0,30.0,15.0,5.0,15.0,30.0,30.0,60.0,RR,59.99104558035764,
25.0,1.0,resp2,stim/left_resp_img.png,"[0.5, 0]",left,stim/gold_coin.png,silver,,,,,training,,,gold,val,,,,,0.0,0.0,0.0,0.0,0.0,1.0,1.0,1.0,,,,,,,,,0.0,training_resp,,108.80730487336405,40.5956845341716,1.0,,left,gold,0.0,89.0,2.0,right,2022_Mar_28_1818,habits_v_MRI,5.0,40.0,1.0,5.0,30.0,15.0,5.0,15.0,30.0,30.0,60.0,RR,59.99104558035764,
25.0,1.0,resp2,stim/left_resp_img.png,"[0.5, 0]",left,stim/gold_coin.png,silver,,,,,training,,,gold,val,,,,,0.0,0.0,0.0,0.0,0.0,1.0,1.0,1.0,,,,,,,,,0.0,training_resp,,109.45721879100893,41.245650063152425,1.0,,left,gold,0.0,89.0,2.0,right,2022_Mar_28_1818,habits_v_MRI,5.0,40.0,1.0,5.0,30.0,15.0,5.0,15.0,30.0,30.0,60.0,RR,59.99104558035764,
25.0,1.0,resp2,stim/left_resp_img.png,"[0.5, 0]",left,stim/gold_coin.png,silver,,,,,training,,,gold,val,,,,,0.0,0.0,0.0,0.0,0.0,1.0,1.0,1.0,,,,,,,,,0.0,training_resp,,110.05717327923048,41.845588716096245,1.0,,left,gold,0.0,89.0,2.0,right,2022_Mar_28_1818,habits_v_MRI,5.0,40.0,1.0,5.0,30.0,15.0,5.0,15.0,30.0,30.0,60.0,RR,59.99104558035764,
25.0,1.0,resp2,stim/left_resp_img.png,"[0.5, 0]",left,stim/gold_coin.png,silver,,,,,training,,,gold,val,,,,,0.0,0.0,0.0,0.0,0.0,1.0,1.0,1.0,,,,,,,,,0.0,training_resp,,110.60706218308768,42.39555562334135,1.0,,left,gold,0.0,89.0,2.0,right,2022_Mar_28_1818,habits_v_MRI,5.0,40.0,1.0,5.0,30.0,15.0,5.0,15.0,30.0,30.0,60.0,RR,59.99104558035764,
25.0,1.0,resp2,stim/left_resp_img.png,"[0.5, 0]",left,stim/gold_coin.png,silver,,,,,training,,,gold,val,,,,,0.0,0.0,0.0,0.0,0.0,1.0,1.0,1.0,,,,,,,,,0.0,training_resp,,111.24040301365312,43.02882578165736,1.0,,left,gold,0.0,89.0,2.0,right,2022_Mar_28_1818,habits_v_MRI,5.0,40.0,1.0,5.0,30.0,15.0,5.0,15.0,30.0,30.0,60.0,RR,59.99104558035764,
25.0,1.0,resp2,stim/left_resp_img.png,"[0.5, 0]",left,stim/gold_coin.png,silver,,,,,training,,,gold,val,,,,,0.0,0.0,0.0,0.0,0.0,1.0,1.0,1.0,,,,,,,,,0.0,training_resp,,111.80717731139156,43.59560359828174,1.0,,left,gold,0.0,89.0,2.0,right,2022_Mar_28_1818,habits_v_MRI,5.0,40.0,1.0,5.0,30.0,15.0,5.0,15.0,30.0,30.0,60.0,RR,59.99104558035764,
25.0,1.0,resp2,stim/left_resp_img.png,"[0.5, 0]",left,stim/gold_coin.png,silver,,,,,training,,,gold,val,,,,,0.0,0.0,0.0,0.0,0.0,1.0,1.0,1.0,,,,,,,,,0.0,training_resp,,112.4236905175494,44.2121335194679,1.0,,left,gold,0.0,89.0,2.0,right,2022_Mar_28_1818,habits_v_MRI,5.0,40.0,1.0,5.0,30.0,15.0,5.0,15.0,30.0,30.0,60.0,RR,59.99104558035764,
25.0,1.0,resp2,stim/left_resp_img.png,"[0.5, 0]",left,stim/gold_coin.png,silver,,,,,training,,,gold,val,,,,,0.0,0.0,0.0,0.0,0.0,1.0,1.0,1.0,,,,,,,,,0.0,ITI_start,15.0,112.8897225218825,44.67872943566181,,,,,,89.0,2.0,right,2022_Mar_28_1818,habits_v_MRI,5.0,40.0,1.0,5.0,30.0,15.0,5.0,15.0,30.0,30.0,60.0,RR,59.99104558035764,
25.0,0.0,resp1,stim/right_resp_img.png,"[-0.5, 0]",right,stim/silver_coin.png,silver,,,,,training,,,silver,deval,,,,,0.0,0.0,0.0,0.0,1.0,0.0,2.0,0.0,,,,,,,,,0.0,training_period_start,45.0,127.92681959830225,0.0,2.0,9.0,,,,89.0,2.0,right,2022_Mar_28_1818,habits_v_MRI,5.0,40.0,1.0,5.0,30.0,15.0,5.0,15.0,30.0,30.0,60.0,RR,59.99104558035764,
25.0,0.0,resp1,stim/right_resp_img.png,"[-0.5, 0]",right,stim/silver_coin.png,silver,,,,,training,,,silver,deval,,,,,0.0,0.0,0.0,0.0,1.0,0.0,2.0,0.0,,,,,,,,,0.0,training_resp,,129.0893191914074,1.181551781250164,2.0,,right,silver,0.0,89.0,2.0,right,2022_Mar_28_1818,habits_v_MRI,5.0,40.0,1.0,5.0,30.0,15.0,5.0,15.0,30.0,30.0,60.0,RR,59.99104558035764,
25.0,0.0,resp1,stim/right_resp_img.png,"[-0.5, 0]",right,stim/silver_coin.png,silver,,,,,training,,,silver,deval,,,,,0.0,0.0,0.0,0.0,1.0,0.0,2.0,0.0,,,,,,,,,0.0,training_resp,,129.62244293210097,1.7148288895841688,2.0,,right,silver,0.0,89.0,2.0,right,2022_Mar_28_1818,habits_v_MRI,5.0,40.0,1.0,5.0,30.0,15.0,5.0,15.0,30.0,30.0,60.0,RR,59.99104558035764,
25.0,0.0,resp1,stim/right_resp_img.png,"[-0.5, 0]",right,stim/silver_coin.png,silver,,,,,training,,,silver,deval,,,,,0.0,0.0,0.0,0.0,1.0,0.0,2.0,0.0,,,,,,,,,0.0,training_resp,,130.1560610854067,2.248144706361927,2.0,,right,silver,0.0,89.0,2.0,right,2022_Mar_28_1818,habits_v_MRI,5.0,40.0,1.0,5.0,30.0,15.0,5.0,15.0,30.0,30.0,60.0,RR,59.99104558035764,
25.0,0.0,resp1,stim/right_resp_img.png,"[-0.5, 0]",right,stim/silver_coin.png,silver,,,,,training,,,silver,deval,,,,,0.0,0.0,0.0,0.0,1.0,0.0,2.0,0.0,,,,,,,,,0.0,training_resp,,130.70595380140003,2.798107214854099,2.0,,right,silver,0.0,89.0,2.0,right,2022_Mar_28_1818,habits_v_MRI,5.0,40.0,1.0,5.0,30.0,15.0,5.0,15.0,30.0,30.0,60.0,RR,59.99104558035764,
25.0,0.0,resp1,stim/right_resp_img.png,"[-0.5, 0]",right,stim/silver_coin.png,silver,,,,,training,,,silver,deval,,,,,0.0,0.0,0.0,0.0,1.0,0.0,2.0,0.0,,,,,,,,,0.0,training_resp,,131.2558324416168,3.348117522429675,2.0,,right,silver,0.0,89.0,2.0,right,2022_Mar_28_1818,habits_v_MRI,5.0,40.0,1.0,5.0,30.0,15.0,5.0,15.0,30.0,30.0,60.0,RR,59.99104558035764,
25.0,0.0,resp1,stim/right_resp_img.png,"[-0.5, 0]",right,stim/silver_coin.png,silver,,,,,training,,,silver,deval,,,,,0.0,0.0,0.0,0.0,1.0,0.0,2.0,0.0,,,,,,,,,0.0,training_resp,,131.83909595792647,3.931390129378997,2.0,,right,silver,0.0,89.0,2.0,right,2022_Mar_28_1818,habits_v_MRI,5.0,40.0,1.0,5.0,30.0,15.0,5.0,15.0,30.0,30.0,60.0,RR,59.99104558035764,
25.0,0.0,resp1,stim/right_resp_img.png,"[-0.5, 0]",right,stim/silver_coin.png,silver,,,,,training,,,silver,deval,,,,,0.0,0.0,0.0,0.0,1.0,0.0,2.0,0.0,,,,,,,,,0.0,training_resp,,132.43905660428572,4.531378927407786,2.0,,right,silver,0.0,89.0,2.0,right,2022_Mar_28_1818,habits_v_MRI,5.0,40.0,1.0,5.0,30.0,15.0,5.0,15.0,30.0,30.0,60.0,RR,59.99104558035764,
25.0,0.0,resp1,stim/right_resp_img.png,"[-0.5, 0]",right,stim/silver_coin.png,silver,,,,,training,,,silver,deval,,,,,0.0,0.0,0.0,0.0,1.0,0.0,2.0,0.0,,,,,,,,,0.0,training_resp,,133.00575377838686,5.097998977755196,2.0,,right,silver,0.0,89.0,2.0,right,2022_Mar_28_1818,habits_v_MRI,5.0,40.0,1.0,5.0,30.0,15.0,5.0,15.0,30.0,30.0,60.0,RR,59.99104558035764,
25.0,0.0,resp1,stim/right_resp_img.png,"[-0.5, 0]",right,stim/silver_coin.png,silver,,,,,training,,,silver,deval,,,,,0.0,0.0,0.0,0.0,1.0,0.0,2.0,0.0,,,,,,,,,0.0,training_resp,,133.52225721941795,5.614590392680839,2.0,23.0,right,silver,1.0,89.0,2.0,right,2022_Mar_28_1818,habits_v_MRI,5.0,40.0,1.0,5.0,30.0,15.0,5.0,15.0,30.0,30.0,60.0,RR,59.99104558035764,
25.0,0.0,resp1,stim/right_resp_img.png,"[-0.5, 0]",right,stim/silver_coin.png,silver,,,,,training,,,silver,deval,,,,,0.0,0.0,0.0,0.0,1.0,0.0,2.0,0.0,,,,,,,,,0.0,training_resp,,135.03893308911938,7.131201748270541,2.0,,right,silver,0.0,89.0,2.0,right,2022_Mar_28_1818,habits_v_MRI,5.0,40.0,1.0,5.0,30.0,15.0,5.0,15.0,30.0,30.0,60.0,RR,59.99104558035764,
25.0,0.0,resp1,stim/right_resp_img.png,"[-0.5, 0]",right,stim/silver_coin.png,silver,,,,,training,,,silver,deval,,,,,0.0,0.0,0.0,0.0,1.0,0.0,2.0,0.0,,,,,,,,,0.0,training_resp,,135.57218057964928,7.664472405100241,2.0,,right,silver,0.0,89.0,2.0,right,2022_Mar_28_1818,habits_v_MRI,5.0,40.0,1.0,5.0,30.0,15.0,5.0,15.0,30.0,30.0,60.0,RR,59.99104558035764,
25.0,0.0,resp1,stim/right_resp_img.png,"[-0.5, 0]",right,stim/silver_coin.png,silver,,,,,training,,,silver,deval,,,,,0.0,0.0,0.0,0.0,1.0,0.0,2.0,0.0,,,,,,,,,0.0,training_resp,,136.12207886727992,8.21438975376077,2.0,,right,silver,0.0,89.0,2.0,right,2022_Mar_28_1818,habits_v_MRI,5.0,40.0,1.0,5.0,30.0,15.0,5.0,15.0,30.0,30.0,60.0,RR,59.99104558035764,
25.0,0.0,resp1,stim/right_resp_img.png,"[-0.5, 0]",right,stim/silver_coin.png,silver,,,,,training,,,silver,deval,,,,,0.0,0.0,0.0,0.0,1.0,0.0,2.0,0.0,,,,,,,,,0.0,training_resp,,136.6391978316242,8.73110462515615,2.0,,right,silver,0.0,89.0,2.0,right,2022_Mar_28_1818,habits_v_MRI,5.0,40.0,1.0,5.0,30.0,15.0,5.0,15.0,30.0,30.0,60.0,RR,59.99104558035764,
25.0,0.0,resp1,stim/right_resp_img.png,"[-0.5, 0]",right,stim/silver_coin.png,silver,,,,,training,,,silver,deval,,,,,0.0,0.0,0.0,0.0,1.0,0.0,2.0,0.0,,,,,,,,,0.0,training_resp,,137.18885477783624,9.281072118901648,2.0,,right,silver,0.0,89.0,2.0,right,2022_Mar_28_1818,habits_v_MRI,5.0,40.0,1.0,5.0,30.0,15.0,5.0,15.0,30.0,30.0,60.0,RR,59.99104558035764,
25.0,0.0,resp1,stim/right_resp_img.png,"[-0.5, 0]",right,stim/silver_coin.png,silver,,,,,training,,,silver,deval,,,,,0.0,0.0,0.0,0.0,1.0,0.0,2.0,0.0,,,,,,,,,0.0,training_resp,,137.7220257311128,9.814343068981543,2.0,,right,silver,0.0,89.0,2.0,right,2022_Mar_28_1818,habits_v_MRI,5.0,40.0,1.0,5.0,30.0,15.0,5.0,15.0,30.0,30.0,60.0,RR,59.99104558035764,
25.0,0.0,resp1,stim/right_resp_img.png,"[-0.5, 0]",right,stim/silver_coin.png,silver,,,,,training,,,silver,deval,,,,,0.0,0.0,0.0,0.0,1.0,0.0,2.0,0.0,,,,,,,,,0.0,training_resp,,138.305270186509,10.397628285572864,2.0,,right,silver,0.0,89.0,2.0,right,2022_Mar_28_1818,habits_v_MRI,5.0,40.0,1.0,5.0,30.0,15.0,5.0,15.0,30.0,30.0,60.0,RR,59.99104558035764,
25.0,0.0,resp1,stim/right_resp_img.png,"[-0.5, 0]",right,stim/silver_coin.png,silver,,,,,training,,,silver,deval,,,,,0.0,0.0,0.0,0.0,1.0,0.0,2.0,0.0,,,,,,,,,0.0,training_resp,,138.90554343303666,10.997654325794429,2.0,,right,silver,0.0,89.0,2.0,right,2022_Mar_28_1818,habits_v_MRI,5.0,40.0,1.0,5.0,30.0,15.0,5.0,15.0,30.0,30.0,60.0,RR,59.99104558035764,
25.0,0.0,resp1,stim/right_resp_img.png,"[-0.5, 0]",right,stim/silver_coin.png,silver,,,,,training,,,silver,deval,,,,,0.0,0.0,0.0,0.0,1.0,0.0,2.0,0.0,,,,,,,,,0.0,training_resp,,139.4719567450229,11.564287279034032,2.0,,right,silver,0.0,89.0,2.0,right,2022_Mar_28_1818,habits_v_MRI,5.0,40.0,1.0,5.0,30.0,15.0,5.0,15.0,30.0,30.0,60.0,RR,59.99104558035764,
25.0,0.0,resp1,stim/right_resp_img.png,"[-0.5, 0]",right,stim/silver_coin.png,silver,,,,,training,,,silver,deval,,,,,0.0,0.0,0.0,0.0,1.0,0.0,2.0,0.0,,,,,,,,,0.0,training_resp,,140.0718965709675,12.164210096700115,2.0,,right,silver,0.0,89.0,2.0,right,2022_Mar_28_1818,habits_v_MRI,5.0,40.0,1.0,5.0,30.0,15.0,5.0,15.0,30.0,30.0,60.0,RR,59.99104558035764,
25.0,0.0,resp1,stim/right_resp_img.png,"[-0.5, 0]",right,stim/silver_coin.png,silver,,,,,training,,,silver,deval,,,,,0.0,0.0,0.0,0.0,1.0,0.0,2.0,0.0,,,,,,,,,0.0,training_resp,,140.6551357478602,12.747458364232443,2.0,,right,silver,0.0,89.0,2.0,right,2022_Mar_28_1818,habits_v_MRI,5.0,40.0,1.0,5.0,30.0,15.0,5.0,15.0,30.0,30.0,60.0,RR,59.99104558035764,
25.0,0.0,resp1,stim/right_resp_img.png,"[-0.5, 0]",right,stim/silver_coin.png,silver,,,,,training,,,silver,deval,,,,,0.0,0.0,0.0,0.0,1.0,0.0,2.0,0.0,,,,,,,,,0.0,training_resp,,141.25511281611398,13.347440710873345,2.0,,right,silver,0.0,89.0,2.0,right,2022_Mar_28_1818,habits_v_MRI,5.0,40.0,1.0,5.0,30.0,15.0,5.0,15.0,30.0,30.0,60.0,RR,59.99104558035764,
25.0,0.0,resp1,stim/right_resp_img.png,"[-0.5, 0]",right,stim/silver_coin.png,silver,,,,,training,,,silver,deval,,,,,0.0,0.0,0.0,0.0,1.0,0.0,2.0,0.0,,,,,,,,,0.0,training_resp,,141.85511246416718,13.947455314453691,2.0,,right,silver,0.0,89.0,2.0,right,2022_Mar_28_1818,habits_v_MRI,5.0,40.0,1.0,5.0,30.0,15.0,5.0,15.0,30.0,30.0,60.0,RR,59.99104558035764,
25.0,0.0,resp1,stim/right_resp_img.png,"[-0.5, 0]",right,stim/silver_coin.png,silver,,,,,training,,,silver,deval,,,,,0.0,0.0,0.0,0.0,1.0,0.0,2.0,0.0,,,,,,,,,0.0,training_resp,,142.45498894900084,14.547359657706693,2.0,,right,silver,0.0,89.0,2.0,right,2022_Mar_28_1818,habits_v_MRI,5.0,40.0,1.0,5.0,30.0,15.0,5.0,15.0,30.0,30.0,60.0,RR,59.99104558035764,
25.0,0.0,resp1,stim/right_resp_img.png,"[-0.5, 0]",right,stim/silver_coin.png,silver,,,,,training,,,silver,deval,,,,,0.0,0.0,0.0,0.0,1.0,0.0,2.0,0.0,,,,,,,,,0.0,training_resp,,143.05503580963705,15.14736517064739,2.0,,right,silver,0.0,89.0,2.0,right,2022_Mar_28_1818,habits_v_MRI,5.0,40.0,1.0,5.0,30.0,15.0,5.0,15.0,30.0,30.0,60.0,RR,59.99104558035764,
25.0,0.0,resp1,stim/right_resp_img.png,"[-0.5, 0]",right,stim/silver_coin.png,silver,,,,,training,,,silver,deval,,,,,0.0,0.0,0.0,0.0,1.0,0.0,2.0,0.0,,,,,,,,,0.0,training_resp,,143.7049632166745,15.79730254795868,2.0,,right,silver,0.0,89.0,2.0,right,2022_Mar_28_1818,habits_v_MRI,5.0,40.0,1.0,5.0,30.0,15.0,5.0,15.0,30.0,30.0,60.0,RR,59.99104558035764,
25.0,0.0,resp1,stim/right_resp_img.png,"[-0.5, 0]",right,stim/silver_coin.png,silver,,,,,training,,,silver,deval,,,,,0.0,0.0,0.0,0.0,1.0,0.0,2.0,0.0,,,,,,,,,0.0,training_resp,,144.3050056786742,16.397288120351732,2.0,,right,silver,0.0,89.0,2.0,right,2022_Mar_28_1818,habits_v_MRI,5.0,40.0,1.0,5.0,30.0,15.0,5.0,15.0,30.0,30.0,60.0,RR,59.99104558035764,
25.0,0.0,resp1,stim/right_resp_img.png,"[-0.5, 0]",right,stim/silver_coin.png,silver,,,,,training,,,silver,deval,,,,,0.0,0.0,0.0,0.0,1.0,0.0,2.0,0.0,,,,,,,,,0.0,training_resp,,144.9215892638313,17.013926542480476,2.0,,right,silver,0.0,89.0,2.0,right,2022_Mar_28_1818,habits_v_MRI,5.0,40.0,1.0,5.0,30.0,15.0,5.0,15.0,30.0,30.0,60.0,RR,59.99104558035764,
25.0,0.0,resp1,stim/right_resp_img.png,"[-0.5, 0]",right,stim/silver_coin.png,silver,,,,,training,,,silver,deval,,,,,0.0,0.0,0.0,0.0,1.0,0.0,2.0,0.0,,,,,,,,,0.0,training_resp,,145.52149008808192,17.61384877364617,2.0,,right,silver,0.0,89.0,2.0,right,2022_Mar_28_1818,habits_v_MRI,5.0,40.0,1.0,5.0,30.0,15.0,5.0,15.0,30.0,30.0,60.0,RR,59.99104558035764,
25.0,0.0,resp1,stim/right_resp_img.png,"[-0.5, 0]",right,stim/silver_coin.png,silver,,,,,training,,,silver,deval,,,,,0.0,0.0,0.0,0.0,1.0,0.0,2.0,0.0,,,,,,,,,0.0,training_resp,,146.1549552549841,18.247138872742653,2.0,,right,silver,0.0,89.0,2.0,right,2022_Mar_28_1818,habits_v_MRI,5.0,40.0,1.0,5.0,30.0,15.0,5.0,15.0,30.0,30.0,60.0,RR,59.99104558035764,
25.0,0.0,resp1,stim/right_resp_img.png,"[-0.5, 0]",right,stim/silver_coin.png,silver,,,,,training,,,silver,deval,,,,,0.0,0.0,0.0,0.0,1.0,0.0,2.0,0.0,,,,,,,,,0.0,training_resp,,146.8380918839248,18.930410101544112,2.0,,right,silver,0.0,89.0,2.0,right,2022_Mar_28_1818,habits_v_MRI,5.0,40.0,1.0,5.0,30.0,15.0,5.0,15.0,30.0,30.0,60.0,RR,59.99104558035764,
25.0,0.0,resp1,stim/right_resp_img.png,"[-0.5, 0]",right,stim/silver_coin.png,silver,,,,,training,,,silver,deval,,,,,0.0,0.0,0.0,0.0,1.0,0.0,2.0,0.0,,,,,,,,,0.0,training_resp,,147.5047539563384,19.597059857682325,2.0,,right,silver,0.0,89.0,2.0,right,2022_Mar_28_1818,habits_v_MRI,5.0,40.0,1.0,5.0,30.0,15.0,5.0,15.0,30.0,30.0,60.0,RR,59.99104558035764,
25.0,0.0,resp1,stim/right_resp_img.png,"[-0.5, 0]",right,stim/silver_coin.png,silver,,,,,training,,,silver,deval,,,,,0.0,0.0,0.0,0.0,1.0,0.0,2.0,0.0,,,,,,,,,0.0,training_resp,,148.1879688819172,20.28026686550584,2.0,16.0,right,silver,1.0,89.0,2.0,right,2022_Mar_28_1818,habits_v_MRI,5.0,40.0,1.0,5.0,30.0,15.0,5.0,15.0,30.0,30.0,60.0,RR,59.99104558035764,
25.0,0.0,resp1,stim/right_resp_img.png,"[-0.5, 0]",right,stim/silver_coin.png,silver,,,,,training,,,silver,deval,,,,,0.0,0.0,0.0,0.0,1.0,0.0,2.0,0.0,,,,,,,,,0.0,training_resp,,149.72128293919377,21.813555703731254,2.0,,right,silver,0.0,89.0,2.0,right,2022_Mar_28_1818,habits_v_MRI,5.0,40.0,1.0,5.0,30.0,15.0,5.0,15.0,30.0,30.0,60.0,RR,59.99104558035764,
25.0,0.0,resp1,stim/right_resp_img.png,"[-0.5, 0]",right,stim/silver_coin.png,silver,,,,,training,,,silver,deval,,,,,0.0,0.0,0.0,0.0,1.0,0.0,2.0,0.0,,,,,,,,,0.0,training_resp,,150.2547266111942,22.346968291676603,2.0,,right,silver,0.0,89.0,2.0,right,2022_Mar_28_1818,habits_v_MRI,5.0,40.0,1.0,5.0,30.0,15.0,5.0,15.0,30.0,30.0,60.0,RR,59.99104558035764,
25.0,0.0,resp1,stim/right_resp_img.png,"[-0.5, 0]",right,stim/silver_coin.png,silver,,,,,training,,,silver,deval,,,,,0.0,0.0,0.0,0.0,1.0,0.0,2.0,0.0,,,,,,,,,0.0,training_resp,,150.78790958749596,22.880232497118413,2.0,,right,silver,0.0,89.0,2.0,right,2022_Mar_28_1818,habits_v_MRI,5.0,40.0,1.0,5.0,30.0,15.0,5.0,15.0,30.0,30.0,60.0,RR,59.99104558035764,
25.0,0.0,resp1,stim/right_resp_img.png,"[-0.5, 0]",right,stim/silver_coin.png,silver,,,,,training,,,silver,deval,,,,,0.0,0.0,0.0,0.0,1.0,0.0,2.0,0.0,,,,,,,,,0.0,training_resp,,151.33787825424224,23.43019529886078,2.0,,right,silver,0.0,89.0,2.0,right,2022_Mar_28_1818,habits_v_MRI,5.0,40.0,1.0,5.0,30.0,15.0,5.0,15.0,30.0,30.0,60.0,RR,59.99104558035764,
25.0,0.0,resp1,stim/right_resp_img.png,"[-0.5, 0]",right,stim/silver_coin.png,silver,,,,,training,,,silver,deval,,,,,0.0,0.0,0.0,0.0,1.0,0.0,2.0,0.0,,,,,,,,,0.0,training_resp,,151.9210954377195,24.01341600134037,2.0,,right,silver,0.0,89.0,2.0,right,2022_Mar_28_1818,habits_v_MRI,5.0,40.0,1.0,5.0,30.0,15.0,5.0,15.0,30.0,30.0,60.0,RR,59.99104558035764,
25.0,0.0,resp1,stim/right_resp_img.png,"[-0.5, 0]",right,stim/silver_coin.png,silver,,,,,training,,,silver,deval,,,,,0.0,0.0,0.0,0.0,1.0,0.0,2.0,0.0,,,,,,,,,0.0,training_resp,,152.50458885892294,24.59680737287272,2.0,,right,silver,0.0,89.0,2.0,right,2022_Mar_28_1818,habits_v_MRI,5.0,40.0,1.0,5.0,30.0,15.0,5.0,15.0,30.0,30.0,60.0,RR,59.99104558035764,
25.0,0.0,resp1,stim/right_resp_img.png,"[-0.5, 0]",right,stim/silver_coin.png,silver,,,,,training,,,silver,deval,,,,,0.0,0.0,0.0,0.0,1.0,0.0,2.0,0.0,,,,,,,,,0.0,training_resp,,153.08776469470467,25.1800233834656,2.0,,right,silver,0.0,89.0,2.0,right,2022_Mar_28_1818,habits_v_MRI,5.0,40.0,1.0,5.0,30.0,15.0,5.0,15.0,30.0,30.0,60.0,RR,59.99104558035764,
25.0,0.0,resp1,stim/right_resp_img.png,"[-0.5, 0]",right,stim/silver_coin.png,silver,,,,,training,,,silver,deval,,,,,0.0,0.0,0.0,0.0,1.0,0.0,2.0,0.0,,,,,,,,,0.0,training_resp,,153.72098118904978,25.81332257320173,2.0,,right,silver,0.0,89.0,2.0,right,2022_Mar_28_1818,habits_v_MRI,5.0,40.0,1.0,5.0,30.0,15.0,5.0,15.0,30.0,30.0,60.0,RR,59.99104558035764,
25.0,0.0,resp1,stim/right_resp_img.png,"[-0.5, 0]",right,stim/silver_coin.png,silver,,,,,training,,,silver,deval,,,,,0.0,0.0,0.0,0.0,1.0,0.0,2.0,0.0,,,,,,,,,0.0,training_resp,,154.30439660686534,26.396664093015715,2.0,,right,silver,0.0,89.0,2.0,right,2022_Mar_28_1818,habits_v_MRI,5.0,40.0,1.0,5.0,30.0,15.0,5.0,15.0,30.0,30.0,60.0,RR,59.99104558035764,
25.0,0.0,resp1,stim/right_resp_img.png,"[-0.5, 0]",right,stim/silver_coin.png,silver,,,,,training,,,silver,deval,,,,,0.0,0.0,0.0,0.0,1.0,0.0,2.0,0.0,,,,,,,,,0.0,training_resp,,155.13772764313035,27.2299420516938,2.0,,right,silver,0.0,89.0,2.0,right,2022_Mar_28_1818,habits_v_MRI,5.0,40.0,1.0,5.0,30.0,15.0,5.0,15.0,30.0,30.0,60.0,RR,59.99104558035764,
25.0,0.0,resp1,stim/right_resp_img.png,"[-0.5, 0]",right,stim/silver_coin.png,silver,,,,,training,,,silver,deval,,,,,0.0,0.0,0.0,0.0,1.0,0.0,2.0,0.0,,,,,,,,,0.0,training_resp,,155.83767107594758,27.92993064445909,2.0,,right,silver,0.0,89.0,2.0,right,2022_Mar_28_1818,habits_v_MRI,5.0,40.0,1.0,5.0,30.0,15.0,5.0,15.0,30.0,30.0,60.0,RR,59.99104558035764,
25.0,0.0,resp1,stim/right_resp_img.png,"[-0.5, 0]",right,stim/silver_coin.png,silver,,,,,training,,,silver,deval,,,,,0.0,0.0,0.0,0.0,1.0,0.0,2.0,0.0,,,,,,,,,0.0,training_resp,,156.4708274549339,28.563150071306158,2.0,,right,silver,0.0,89.0,2.0,right,2022_Mar_28_1818,habits_v_MRI,5.0,40.0,1.0,5.0,30.0,15.0,5.0,15.0,30.0,30.0,60.0,RR,59.99104558035764,
25.0,0.0,resp1,stim/right_resp_img.png,"[-0.5, 0]",right,stim/silver_coin.png,silver,,,,,training,,,silver,deval,,,,,0.0,0.0,0.0,0.0,1.0,0.0,2.0,0.0,,,,,,,,,0.0,training_resp,,157.1376766182948,29.22983501688577,2.0,,right,silver,0.0,89.0,2.0,right,2022_Mar_28_1818,habits_v_MRI,5.0,40.0,1.0,5.0,30.0,15.0,5.0,15.0,30.0,30.0,60.0,RR,59.99104558035764,
25.0,0.0,resp1,stim/right_resp_img.png,"[-0.5, 0]",right,stim/silver_coin.png,silver,,,,,training,,,silver,deval,,,,,0.0,0.0,0.0,0.0,1.0,0.0,2.0,0.0,,,,,,,,,0.0,training_resp,,157.78756062488537,29.87977943220176,2.0,,right,silver,0.0,89.0,2.0,right,2022_Mar_28_1818,habits_v_MRI,5.0,40.0,1.0,5.0,30.0,15.0,5.0,15.0,30.0,30.0,60.0,RR,59.99104558035764,
25.0,0.0,resp1,stim/right_resp_img.png,"[-0.5, 0]",right,stim/silver_coin.png,silver,,,,,training,,,silver,deval,,,,,0.0,0.0,0.0,0.0,1.0,0.0,2.0,0.0,,,,,,,,,0.0,training_resp,,158.47086029849015,30.563172064721584,2.0,,right,silver,0.0,89.0,2.0,right,2022_Mar_28_1818,habits_v_MRI,5.0,40.0,1.0,5.0,30.0,15.0,5.0,15.0,30.0,30.0,60.0,RR,59.99104558035764,
25.0,0.0,resp1,stim/right_resp_img.png,"[-0.5, 0]",right,stim/silver_coin.png,silver,,,,,training,,,silver,deval,,,,,0.0,0.0,0.0,0.0,1.0,0.0,2.0,0.0,,,,,,,,,0.0,training_resp,,159.02075536036864,31.113006424740888,2.0,11.0,right,silver,1.0,89.0,2.0,right,2022_Mar_28_1818,habits_v_MRI,5.0,40.0,1.0,5.0,30.0,15.0,5.0,15.0,30.0,30.0,60.0,RR,59.99104558035764,
25.0,0.0,resp1,stim/right_resp_img.png,"[-0.5, 0]",right,stim/silver_coin.png,silver,,,,,training,,,silver,deval,,,,,0.0,0.0,0.0,0.0,1.0,0.0,2.0,0.0,,,,,,,,,0.0,training_resp,,161.503875684808,33.596171615761705,2.0,,right,silver,0.0,89.0,2.0,right,2022_Mar_28_1818,habits_v_MRI,5.0,40.0,1.0,5.0,30.0,15.0,5.0,15.0,30.0,30.0,60.0,RR,59.99104558035764,
25.0,0.0,resp1,stim/right_resp_img.png,"[-0.5, 0]",right,stim/silver_coin.png,silver,,,,,training,,,silver,deval,,,,,0.0,0.0,0.0,0.0,1.0,0.0,2.0,0.0,,,,,,,,,0.0,training_resp,,162.0206670933403,34.11287768976763,2.0,,right,silver,0.0,89.0,2.0,right,2022_Mar_28_1818,habits_v_MRI,5.0,40.0,1.0,5.0,30.0,15.0,5.0,15.0,30.0,30.0,60.0,RR,59.99104558035764,
25.0,0.0,resp1,stim/right_resp_img.png,"[-0.5, 0]",right,stim/silver_coin.png,silver,,,,,training,,,silver,deval,,,,,0.0,0.0,0.0,0.0,1.0,0.0,2.0,0.0,,,,,,,,,0.0,training_resp,,162.50379680166952,34.596116485539824,2.0,,right,silver,0.0,89.0,2.0,right,2022_Mar_28_1818,habits_v_MRI,5.0,40.0,1.0,5.0,30.0,15.0,5.0,15.0,30.0,30.0,60.0,RR,59.99104558035764,
25.0,0.0,resp1,stim/right_resp_img.png,"[-0.5, 0]",right,stim/silver_coin.png,silver,,,,,training,,,silver,deval,,,,,0.0,0.0,0.0,0.0,1.0,0.0,2.0,0.0,,,,,,,,,0.0,training_resp,,163.03712698747404,35.12944608484395,2.0,,right,silver,0.0,89.0,2.0,right,2022_Mar_28_1818,habits_v_MRI,5.0,40.0,1.0,5.0,30.0,15.0,5.0,15.0,30.0,30.0,60.0,RR,59.99104558035764,
25.0,0.0,resp1,stim/right_resp_img.png,"[-0.5, 0]",right,stim/silver_coin.png,silver,,,,,training,,,silver,deval,,,,,0.0,0.0,0.0,0.0,1.0,0.0,2.0,0.0,,,,,,,,,0.0,training_resp,,163.53716173709836,35.62943684763741,2.0,,right,silver,0.0,89.0,2.0,right,2022_Mar_28_1818,habits_v_MRI,5.0,40.0,1.0,5.0,30.0,15.0,5.0,15.0,30.0,30.0,60.0,RR,59.99104558035764,
25.0,0.0,resp1,stim/right_resp_img.png,"[-0.5, 0]",right,stim/silver_coin.png,silver,,,,,training,,,silver,deval,,,,,0.0,0.0,0.0,0.0,1.0,0.0,2.0,0.0,,,,,,,,,0.0,training_resp,,164.02037150145043,36.11271259235218,2.0,,right,silver,0.0,89.0,2.0,right,2022_Mar_28_1818,habits_v_MRI,5.0,40.0,1.0,5.0,30.0,15.0,5.0,15.0,30.0,30.0,60.0,RR,59.99104558035764,
25.0,0.0,resp1,stim/right_resp_img.png,"[-0.5, 0]",right,stim/silver_coin.png,silver,,,,,training,,,silver,deval,,,,,0.0,0.0,0.0,0.0,1.0,0.0,2.0,0.0,,,,,,,,,0.0,training_resp,,164.50374841608573,36.59605842281599,2.0,,right,silver,0.0,89.0,2.0,right,2022_Mar_28_1818,habits_v_MRI,5.0,40.0,1.0,5.0,30.0,15.0,5.0,15.0,30.0,30.0,60.0,RR,59.99104558035764,
25.0,0.0,resp1,stim/right_resp_img.png,"[-0.5, 0]",right,stim/silver_coin.png,silver,,,,,training,,,silver,deval,,,,,0.0,0.0,0.0,0.0,1.0,0.0,2.0,0.0,,,,,,,,,0.0,training_resp,,165.0204635807313,37.11265922151506,2.0,,right,silver,0.0,89.0,2.0,right,2022_Mar_28_1818,habits_v_MRI,5.0,40.0,1.0,5.0,30.0,15.0,5.0,15.0,30.0,30.0,60.0,RR,59.99104558035764,
25.0,0.0,resp1,stim/right_resp_img.png,"[-0.5, 0]",right,stim/silver_coin.png,silver,,,,,training,,,silver,deval,,,,,0.0,0.0,0.0,0.0,1.0,0.0,2.0,0.0,,,,,,,,,0.0,training_resp,,165.50369387236424,37.595941710984334,2.0,,right,silver,0.0,89.0,2.0,right,2022_Mar_28_1818,habits_v_MRI,5.0,40.0,1.0,5.0,30.0,15.0,5.0,15.0,30.0,30.0,60.0,RR,59.99104558035764,
25.0,0.0,resp1,stim/right_resp_img.png,"[-0.5, 0]",right,stim/silver_coin.png,silver,,,,,training,,,silver,deval,,,,,0.0,0.0,0.0,0.0,1.0,0.0,2.0,0.0,,,,,,,,,0.0,training_resp,,166.00362598593347,38.09589669771958,2.0,,right,silver,0.0,89.0,2.0,right,2022_Mar_28_1818,habits_v_MRI,5.0,40.0,1.0,5.0,30.0,15.0,5.0,15.0,30.0,30.0,60.0,RR,59.99104558035764,
25.0,0.0,resp1,stim/right_resp_img.png,"[-0.5, 0]",right,stim/silver_coin.png,silver,,,,,training,,,silver,deval,,,,,0.0,0.0,0.0,0.0,1.0,0.0,2.0,0.0,,,,,,,,,0.0,training_resp,,166.48689967789687,38.57920821837615,2.0,24.0,right,silver,1.0,89.0,2.0,right,2022_Mar_28_1818,habits_v_MRI,5.0,40.0,1.0,5.0,30.0,15.0,5.0,15.0,30.0,30.0,60.0,RR,59.99104558035764,
25.0,0.0,resp1,stim/right_resp_img.png,"[-0.5, 0]",right,stim/silver_coin.png,silver,,,,,training,,,silver,deval,,,,,0.0,0.0,0.0,0.0,1.0,0.0,2.0,0.0,,,,,,,,,0.0,training_resp,,169.33675365603997,41.42903609771747,2.0,,right,silver,0.0,89.0,2.0,right,2022_Mar_28_1818,habits_v_MRI,5.0,40.0,1.0,5.0,30.0,15.0,5.0,15.0,30.0,30.0,60.0,RR,59.99104558035764,
25.0,0.0,resp1,stim/right_resp_img.png,"[-0.5, 0]",right,stim/silver_coin.png,silver,,,,,training,,,silver,deval,,,,,0.0,0.0,0.0,0.0,1.0,0.0,2.0,0.0,,,,,,,,,0.0,training_resp,,169.7534584691748,41.845691059017554,2.0,,right,silver,0.0,89.0,2.0,right,2022_Mar_28_1818,habits_v_MRI,5.0,40.0,1.0,5.0,30.0,15.0,5.0,15.0,30.0,30.0,60.0,RR,59.99104558035764,
25.0,0.0,resp1,stim/right_resp_img.png,"[-0.5, 0]",right,stim/silver_coin.png,silver,,,,,training,,,silver,deval,,,,,0.0,0.0,0.0,0.0,1.0,0.0,2.0,0.0,,,,,,,,,0.0,training_resp,,170.17003923922312,42.262356870342046,2.0,,right,silver,0.0,89.0,2.0,right,2022_Mar_28_1818,habits_v_MRI,5.0,40.0,1.0,5.0,30.0,15.0,5.0,15.0,30.0,30.0,60.0,RR,59.99104558035764,
25.0,0.0,resp1,stim/right_resp_img.png,"[-0.5, 0]",right,stim/silver_coin.png,silver,,,,,training,,,silver,deval,,,,,0.0,0.0,0.0,0.0,1.0,0.0,2.0,0.0,,,,,,,,,0.0,training_resp,,170.6366729841102,42.729002931620926,2.0,,right,silver,0.0,89.0,2.0,right,2022_Mar_28_1818,habits_v_MRI,5.0,40.0,1.0,5.0,30.0,15.0,5.0,15.0,30.0,30.0,60.0,RR,59.99104558035764,
25.0,0.0,resp1,stim/right_resp_img.png,"[-0.5, 0]",right,stim/silver_coin.png,silver,,,,,training,,,silver,deval,,,,,0.0,0.0,0.0,0.0,1.0,0.0,2.0,0.0,,,,,,,,,0.0,training_resp,,171.11996192485094,43.21225902880542,2.0,,right,silver,0.0,89.0,2.0,right,2022_Mar_28_1818,habits_v_MRI,5.0,40.0,1.0,5.0,30.0,15.0,5.0,15.0,30.0,30.0,60.0,RR,59.99104558035764,
25.0,0.0,resp1,stim/right_resp_img.png,"[-0.5, 0]",right,stim/silver_coin.png,silver,,,,,training,,,silver,deval,,,,,0.0,0.0,0.0,0.0,1.0,0.0,2.0,0.0,,,,,,,,,0.0,training_resp,,171.55333454336505,43.64557651709765,2.0,,right,silver,0.0,89.0,2.0,right,2022_Mar_28_1818,habits_v_MRI,5.0,40.0,1.0,5.0,30.0,15.0,5.0,15.0,30.0,30.0,60.0,RR,59.99104558035764,
25.0,0.0,resp1,stim/right_resp_img.png,"[-0.5, 0]",right,stim/silver_coin.png,silver,,,,,training,,,silver,deval,,,,,0.0,0.0,0.0,0.0,1.0,0.0,2.0,0.0,,,,,,,,,0.0,training_resp,,172.0366249504732,44.12885871320032,2.0,,right,silver,0.0,89.0,2.0,right,2022_Mar_28_1818,habits_v_MRI,5.0,40.0,1.0,5.0,30.0,15.0,5.0,15.0,30.0,30.0,60.0,RR,59.99104558035764,
25.0,0.0,resp1,stim/right_resp_img.png,"[-0.5, 0]",right,stim/silver_coin.png,silver,,,,,training,,,silver,deval,,,,,0.0,0.0,0.0,0.0,1.0,0.0,2.0,0.0,,,,,,,,,0.0,training_resp,,172.53661424689926,44.628878507297486,2.0,,right,silver,0.0,89.0,2.0,right,2022_Mar_28_1818,habits_v_MRI,5.0,40.0,1.0,5.0,30.0,15.0,5.0,15.0,30.0,30.0,60.0,RR,59.99104558035764,
25.0,0.0,resp1,stim/right_resp_img.png,"[-0.5, 0]",right,stim/silver_coin.png,silver,,,,,training,,,silver,deval,,,,,0.0,0.0,0.0,0.0,1.0,0.0,2.0,0.0,,,,,,,,,0.0,ITI_start,30.0,172.63590849202592,44.72885337623302,,,,,,89.0,2.0,right,2022_Mar_28_1818,habits_v_MRI,5.0,40.0,1.0,5.0,30.0,15.0,5.0,15.0,30.0,30.0,60.0,RR,59.99104558035764,
25.0,1.0,resp2,stim/left_resp_img.png,"[0.5, 0]",left,stim/gold_coin.png,silver,,,,,training,,,gold,val,,,,,0.0,0.0,0.0,0.0,1.0,1.0,3.0,1.0,,,,,,,,,0.0,training_period_start,37.5,202.66949688084424,0.0,3.0,18.0,,,,89.0,2.0,right,2022_Mar_28_1818,habits_v_MRI,5.0,40.0,1.0,5.0,30.0,15.0,5.0,15.0,30.0,30.0,60.0,RR,59.99104558035764,
25.0,1.0,resp2,stim/left_resp_img.png,"[0.5, 0]",left,stim/gold_coin.png,silver,,,,,training,,,gold,val,,,,,0.0,0.0,0.0,0.0,1.0,1.0,3.0,1.0,,,,,,,,,0.0,training_resp,,203.4845355291618,0.8317914950894192,3.0,,left,gold,0.0,89.0,2.0,right,2022_Mar_28_1818,habits_v_MRI,5.0,40.0,1.0,5.0,30.0,15.0,5.0,15.0,30.0,30.0,60.0,RR,59.99104558035764,
25.0,1.0,resp2,stim/left_resp_img.png,"[0.5, 0]",left,stim/gold_coin.png,silver,,,,,training,,,gold,val,,,,,0.0,0.0,0.0,0.0,1.0,1.0,3.0,1.0,,,,,,,,,0.0,training_resp,,203.93450029566884,1.2818023012951016,3.0,,left,gold,0.0,89.0,2.0,right,2022_Mar_28_1818,habits_v_MRI,5.0,40.0,1.0,5.0,30.0,15.0,5.0,15.0,30.0,30.0,60.0,RR,59.99104558035764,
25.0,1.0,resp2,stim/left_resp_img.png,"[0.5, 0]",left,stim/gold_coin.png,silver,,,,,training,,,gold,val,,,,,0.0,0.0,0.0,0.0,1.0,1.0,3.0,1.0,,,,,,,,,0.0,training_resp,,204.35118311527185,1.6984282311750576,3.0,,left,gold,0.0,89.0,2.0,right,2022_Mar_28_1818,habits_v_MRI,5.0,40.0,1.0,5.0,30.0,15.0,5.0,15.0,30.0,30.0,60.0,RR,59.99104558035764,
25.0,1.0,resp2,stim/left_resp_img.png,"[0.5, 0]",left,stim/gold_coin.png,silver,,,,,training,,,gold,val,,,,,0.0,0.0,0.0,0.0,1.0,1.0,3.0,1.0,,,,,,,,,0.0,training_resp,,204.7677996613784,2.1150767410872504,3.0,,left,gold,0.0,89.0,2.0,right,2022_Mar_28_1818,habits_v_MRI,5.0,40.0,1.0,5.0,30.0,15.0,5.0,15.0,30.0,30.0,60.0,RR,59.99104558035764,
25.0,1.0,resp2,stim/left_resp_img.png,"[0.5, 0]",left,stim/gold_coin.png,silver,,,,,training,,,gold,val,,,,,0.0,0.0,0.0,0.0,1.0,1.0,3.0,1.0,,,,,,,,,0.0,training_resp,,205.20123004936613,2.5484171025455,3.0,,left,gold,0.0,89.0,2.0,right,2022_Mar_28_1818,habits_v_MRI,5.0,40.0,1.0,5.0,30.0,15.0,5.0,15.0,30.0,30.0,60.0,RR,59.99104558035764,
25.0,1.0,resp2,stim/left_resp_img.png,"[0.5, 0]",left,stim/gold_coin.png,silver,,,,,training,,,gold,val,,,,,0.0,0.0,0.0,0.0,1.0,1.0,3.0,1.0,,,,,,,,,0.0,training_resp,,205.66778344486372,3.015035891905427,3.0,,left,gold,0.0,89.0,2.0,right,2022_Mar_28_1818,habits_v_MRI,5.0,40.0,1.0,5.0,30.0,15.0,5.0,15.0,30.0,30.0,60.0,RR,59.99104558035764,
25.0,1.0,resp2,stim/left_resp_img.png,"[0.5, 0]",left,stim/gold_coin.png,silver,,,,,training,,,gold,val,,,,,0.0,0.0,0.0,0.0,1.0,1.0,3.0,1.0,,,,,,,,,0.0,training_resp,,206.10133640957065,3.448372734361328,3.0,,left,gold,0.0,89.0,2.0,right,2022_Mar_28_1818,habits_v_MRI,5.0,40.0,1.0,5.0,30.0,15.0,5.0,15.0,30.0,30.0,60.0,RR,59.99104558035764,
25.0,1.0,resp2,stim/left_resp_img.png,"[0.5, 0]",left,stim/gold_coin.png,silver,,,,,training,,,gold,val,,,,,0.0,0.0,0.0,0.0,1.0,1.0,3.0,1.0,,,,,,,,,0.0,training_resp,,206.53435068158436,3.8816723346244544,3.0,,left,gold,0.0,89.0,2.0,right,2022_Mar_28_1818,habits_v_MRI,5.0,40.0,1.0,5.0,30.0,15.0,5.0,15.0,30.0,30.0,60.0,RR,59.99104558035764,
25.0,1.0,resp2,stim/left_resp_img.png,"[0.5, 0]",left,stim/gold_coin.png,silver,,,,,training,,,gold,val,,,,,0.0,0.0,0.0,0.0,1.0,1.0,3.0,1.0,,,,,,,,,0.0,training_resp,,206.9676655306248,4.3149168046657,3.0,,left,gold,0.0,89.0,2.0,right,2022_Mar_28_1818,habits_v_MRI,5.0,40.0,1.0,5.0,30.0,15.0,5.0,15.0,30.0,30.0,60.0,RR,59.99104558035764,
25.0,1.0,resp2,stim/left_resp_img.png,"[0.5, 0]",left,stim/gold_coin.png,silver,,,,,training,,,gold,val,,,,,0.0,0.0,0.0,0.0,1.0,1.0,3.0,1.0,,,,,,,,,0.0,training_resp,,207.38434453809168,4.731633347575553,3.0,,left,gold,0.0,89.0,2.0,right,2022_Mar_28_1818,habits_v_MRI,5.0,40.0,1.0,5.0,30.0,15.0,5.0,15.0,30.0,30.0,60.0,RR,59.99104558035764,
25.0,1.0,resp2,stim/left_resp_img.png,"[0.5, 0]",left,stim/gold_coin.png,silver,,,,,training,,,gold,val,,,,,0.0,0.0,0.0,0.0,1.0,1.0,3.0,1.0,,,,,,,,,0.0,training_resp,,207.80110829358452,5.148266315460205,3.0,,left,gold,0.0,89.0,2.0,right,2022_Mar_28_1818,habits_v_MRI,5.0,40.0,1.0,5.0,30.0,15.0,5.0,15.0,30.0,30.0,60.0,RR,59.99104558035764,
25.0,1.0,resp2,stim/left_resp_img.png,"[0.5, 0]",left,stim/gold_coin.png,silver,,,,,training,,,gold,val,,,,,0.0,0.0,0.0,0.0,1.0,1.0,3.0,1.0,,,,,,,,,0.0,training_resp,,208.25104109628592,5.59823899960611,3.0,,left,gold,0.0,89.0,2.0,right,2022_Mar_28_1818,habits_v_MRI,5.0,40.0,1.0,5.0,30.0,15.0,5.0,15.0,30.0,30.0,60.0,RR,59.99104558035764,
25.0,1.0,resp2,stim/left_resp_img.png,"[0.5, 0]",left,stim/gold_coin.png,silver,,,,,training,,,gold,val,,,,,0.0,0.0,0.0,0.0,1.0,1.0,3.0,1.0,,,,,,,,,0.0,training_resp,,208.7010809337953,6.048245407058857,3.0,,left,gold,0.0,89.0,2.0,right,2022_Mar_28_1818,habits_v_MRI,5.0,40.0,1.0,5.0,30.0,15.0,5.0,15.0,30.0,30.0,60.0,RR,59.99104558035764,
25.0,1.0,resp2,stim/left_resp_img.png,"[0.5, 0]",left,stim/gold_coin.png,silver,,,,,training,,,gold,val,,,,,0.0,0.0,0.0,0.0,1.0,1.0,3.0,1.0,,,,,,,,,0.0,training_resp,,209.13436176627877,6.481615386321209,3.0,,left,gold,0.0,89.0,2.0,right,2022_Mar_28_1818,habits_v_MRI,5.0,40.0,1.0,5.0,30.0,15.0,5.0,15.0,30.0,30.0,60.0,RR,59.99104558035764,
25.0,1.0,resp2,stim/left_resp_img.png,"[0.5, 0]",left,stim/gold_coin.png,silver,,,,,training,,,gold,val,,,,,0.0,0.0,0.0,0.0,1.0,1.0,3.0,1.0,,,,,,,,,0.0,training_resp,,209.6009793827543,6.948130073375069,3.0,,left,gold,0.0,89.0,2.0,right,2022_Mar_28_1818,habits_v_MRI,5.0,40.0,1.0,5.0,30.0,15.0,5.0,15.0,30.0,30.0,60.0,RR,59.99104558035764,
25.0,1.0,resp2,stim/left_resp_img.png,"[0.5, 0]",left,stim/gold_coin.png,silver,,,,,training,,,gold,val,,,,,0.0,0.0,0.0,0.0,1.0,1.0,3.0,1.0,,,,,,,,,0.0,training_resp,,210.0342461394612,7.3814308466389775,3.0,,left,gold,0.0,89.0,2.0,right,2022_Mar_28_1818,habits_v_MRI,5.0,40.0,1.0,5.0,30.0,15.0,5.0,15.0,30.0,30.0,60.0,RR,59.99104558035764,
25.0,1.0,resp2,stim/left_resp_img.png,"[0.5, 0]",left,stim/gold_coin.png,silver,,,,,training,,,gold,val,,,,,0.0,0.0,0.0,0.0,1.0,1.0,3.0,1.0,,,,,,,,,0.0,training_resp,,210.48430415813343,7.831456315005198,3.0,,left,gold,0.0,89.0,2.0,right,2022_Mar_28_1818,habits_v_MRI,5.0,40.0,1.0,5.0,30.0,15.0,5.0,15.0,30.0,30.0,60.0,RR,59.99104558035764,
25.0,1.0,resp2,stim/left_resp_img.png,"[0.5, 0]",left,stim/gold_coin.png,silver,,,,,training,,,gold,val,,,,,0.0,0.0,0.0,0.0,1.0,1.0,3.0,1.0,,,,,,,,,0.0,training_resp,,210.93417625897564,8.28138823795598,3.0,11.0,left,gold,1.0,89.0,2.0,right,2022_Mar_28_1818,habits_v_MRI,5.0,40.0,1.0,5.0,30.0,15.0,5.0,15.0,30.0,30.0,60.0,RR,59.99104558035764,
25.0,1.0,resp2,stim/left_resp_img.png,"[0.5, 0]",left,stim/gold_coin.png,silver,,,,,training,,,gold,val,,,,,0.0,0.0,0.0,0.0,1.0,1.0,3.0,1.0,,,,,,,,,0.0,training_resp,,212.2841992933536,9.631349397590384,3.0,,left,gold,0.0,89.0,2.0,right,2022_Mar_28_1818,habits_v_MRI,5.0,40.0,1.0,5.0,30.0,15.0,5.0,15.0,30.0,30.0,60.0,RR,59.99104558035764,
25.0,1.0,resp2,stim/left_resp_img.png,"[0.5, 0]",left,stim/gold_coin.png,silver,,,,,training,,,gold,val,,,,,0.0,0.0,0.0,0.0,1.0,1.0,3.0,1.0,,,,,,,,,0.0,training_resp,,212.6840946632437,10.031310454476625,3.0,,left,gold,0.0,89.0,2.0,right,2022_Mar_28_1818,habits_v_MRI,5.0,40.0,1.0,5.0,30.0,15.0,5.0,15.0,30.0,30.0,60.0,RR,59.99104558035764,
25.0,1.0,resp2,stim/left_resp_img.png,"[0.5, 0]",left,stim/gold_coin.png,silver,,,,,training,,,gold,val,,,,,0.0,0.0,0.0,0.0,1.0,1.0,3.0,1.0,,,,,,,,,0.0,training_resp,,213.11731889937076,10.464587768074123,3.0,,left,gold,0.0,89.0,2.0,right,2022_Mar_28_1818,habits_v_MRI,5.0,40.0,1.0,5.0,30.0,15.0,5.0,15.0,30.0,30.0,60.0,RR,59.99104558035764,
25.0,1.0,resp2,stim/left_resp_img.png,"[0.5, 0]",left,stim/gold_coin.png,silver,,,,,training,,,gold,val,,,,,0.0,0.0,0.0,0.0,1.0,1.0,3.0,1.0,,,,,,,,,0.0,training_resp,,213.5340852939989,10.881268241791986,3.0,,left,gold,0.0,89.0,2.0,right,2022_Mar_28_1818,habits_v_MRI,5.0,40.0,1.0,5.0,30.0,15.0,5.0,15.0,30.0,30.0,60.0,RR,59.99104558035764,
25.0,1.0,resp2,stim/left_resp_img.png,"[0.5, 0]",left,stim/gold_coin.png,silver,,,,,training,,,gold,val,,,,,0.0,0.0,0.0,0.0,1.0,1.0,3.0,1.0,,,,,,,,,0.0,training_resp,,213.95067104930055,11.29785399697721,3.0,,left,gold,0.0,89.0,2.0,right,2022_Mar_28_1818,habits_v_MRI,5.0,40.0,1.0,5.0,30.0,15.0,5.0,15.0,30.0,30.0,60.0,RR,59.99104558035764,
25.0,1.0,resp2,stim/left_resp_img.png,"[0.5, 0]",left,stim/gold_coin.png,silver,,,,,training,,,gold,val,,,,,0.0,0.0,0.0,0.0,1.0,1.0,3.0,1.0,,,,,,,,,0.0,training_resp,,214.35060219513247,11.697861093562096,3.0,,left,gold,0.0,89.0,2.0,right,2022_Mar_28_1818,habits_v_MRI,5.0,40.0,1.0,5.0,30.0,15.0,5.0,15.0,30.0,30.0,60.0,RR,59.99104558035764,
25.0,1.0,resp2,stim/left_resp_img.png,"[0.5, 0]",left,stim/gold_coin.png,silver,,,,,training,,,gold,val,,,,,0.0,0.0,0.0,0.0,1.0,1.0,3.0,1.0,,,,,,,,,0.0,training_resp,,214.75051691918637,12.097804262535648,3.0,,left,gold,0.0,89.0,2.0,right,2022_Mar_28_1818,habits_v_MRI,5.0,40.0,1.0,5.0,30.0,15.0,5.0,15.0,30.0,30.0,60.0,RR,59.99104558035764,
25.0,1.0,resp2,stim/left_resp_img.png,"[0.5, 0]",left,stim/gold_coin.png,silver,,,,,training,,,gold,val,,,,,0.0,0.0,0.0,0.0,1.0,1.0,3.0,1.0,,,,,,,,,0.0,training_resp,,215.15049175871536,12.49776649242267,3.0,,left,gold,0.0,89.0,2.0,right,2022_Mar_28_1818,habits_v_MRI,5.0,40.0,1.0,5.0,30.0,15.0,5.0,15.0,30.0,30.0,60.0,RR,59.99104558035764,
25.0,1.0,resp2,stim/left_resp_img.png,"[0.5, 0]",left,stim/gold_coin.png,silver,,,,,training,,,gold,val,,,,,0.0,0.0,0.0,0.0,1.0,1.0,3.0,1.0,,,,,,,,,0.0,training_resp,,215.6172117179958,12.964452435146086,3.0,,left,gold,0.0,89.0,2.0,right,2022_Mar_28_1818,habits_v_MRI,5.0,40.0,1.0,5.0,30.0,15.0,5.0,15.0,30.0,30.0,60.0,RR,59.99104558035764,
25.0,1.0,resp2,stim/left_resp_img.png,"[0.5, 0]",left,stim/gold_coin.png,silver,,,,,training,,,gold,val,,,,,0.0,0.0,0.0,0.0,1.0,1.0,3.0,1.0,,,,,,,,,0.0,training_resp,,216.0671902670292,13.414376440458,3.0,,left,gold,0.0,89.0,2.0,right,2022_Mar_28_1818,habits_v_MRI,5.0,40.0,1.0,5.0,30.0,15.0,5.0,15.0,30.0,30.0,60.0,RR,59.99104558035764,
25.0,1.0,resp2,stim/left_resp_img.png,"[0.5, 0]",left,stim/gold_coin.png,silver,,,,,training,,,gold,val,,,,,0.0,0.0,0.0,0.0,1.0,1.0,3.0,1.0,,,,,,,,,0.0,training_resp,,216.5004203680437,13.847679852857254,3.0,16.0,left,gold,1.0,89.0,2.0,right,2022_Mar_28_1818,habits_v_MRI,5.0,40.0,1.0,5.0,30.0,15.0,5.0,15.0,30.0,30.0,60.0,RR,59.99104558035764,
25.0,1.0,resp2,stim/left_resp_img.png,"[0.5, 0]",left,stim/gold_coin.png,silver,,,,,training,,,gold,val,,,,,0.0,0.0,0.0,0.0,1.0,1.0,3.0,1.0,,,,,,,,,0.0,training_resp,,217.53376682894304,14.880977048538623,3.0,,left,gold,0.0,89.0,2.0,right,2022_Mar_28_1818,habits_v_MRI,5.0,40.0,1.0,5.0,30.0,15.0,5.0,15.0,30.0,30.0,60.0,RR,59.99104558035764,
25.0,1.0,resp2,stim/left_resp_img.png,"[0.5, 0]",left,stim/gold_coin.png,silver,,,,,training,,,gold,val,,,,,0.0,0.0,0.0,0.0,1.0,1.0,3.0,1.0,,,,,,,,,0.0,training_resp,,217.95031827443745,15.297603564918973,3.0,,left,gold,0.0,89.0,2.0,right,2022_Mar_28_1818,habits_v_MRI,5.0,40.0,1.0,5.0,30.0,15.0,5.0,15.0,30.0,30.0,60.0,RR,59.99104558035764,
25.0,1.0,resp2,stim/left_resp_img.png,"[0.5, 0]",left,stim/gold_coin.png,silver,,,,,training,,,gold,val,,,,,0.0,0.0,0.0,0.0,1.0,1.0,3.0,1.0,,,,,,,,,0.0,training_resp,,218.4007938753348,15.74761202512309,3.0,,left,gold,0.0,89.0,2.0,right,2022_Mar_28_1818,habits_v_MRI,5.0,40.0,1.0,5.0,30.0,15.0,5.0,15.0,30.0,30.0,60.0,RR,59.99104558035764,
25.0,1.0,resp2,stim/left_resp_img.png,"[0.5, 0]",left,stim/gold_coin.png,silver,,,,,training,,,gold,val,,,,,0.0,0.0,0.0,0.0,1.0,1.0,3.0,1.0,,,,,,,,,0.0,training_resp,,218.83367002848536,16.18091074563563,3.0,,left,gold,0.0,89.0,2.0,right,2022_Mar_28_1818,habits_v_MRI,5.0,40.0,1.0,5.0,30.0,15.0,5.0,15.0,30.0,30.0,60.0,RR,59.99104558035764,
25.0,1.0,resp2,stim/left_resp_img.png,"[0.5, 0]",left,stim/gold_coin.png,silver,,,,,training,,,gold,val,,,,,0.0,0.0,0.0,0.0,1.0,1.0,3.0,1.0,,,,,,,,,0.0,training_resp,,219.28365561540704,16.63088782853447,3.0,,left,gold,0.0,89.0,2.0,right,2022_Mar_28_1818,habits_v_MRI,5.0,40.0,1.0,5.0,30.0,15.0,5.0,15.0,30.0,30.0,60.0,RR,59.99104558035764,
25.0,1.0,resp2,stim/left_resp_img.png,"[0.5, 0]",left,stim/gold_coin.png,silver,,,,,training,,,gold,val,,,,,0.0,0.0,0.0,0.0,1.0,1.0,3.0,1.0,,,,,,,,,0.0,training_resp,,219.73364472133107,17.08086109906435,3.0,,left,gold,0.0,89.0,2.0,right,2022_Mar_28_1818,habits_v_MRI,5.0,40.0,1.0,5.0,30.0,15.0,5.0,15.0,30.0,30.0,60.0,RR,59.99104558035764,
25.0,1.0,resp2,stim/left_resp_img.png,"[0.5, 0]",left,stim/gold_coin.png,silver,,,,,training,,,gold,val,,,,,0.0,0.0,0.0,0.0,1.0,1.0,3.0,1.0,,,,,,,,,0.0,training_resp,,220.20024884841405,17.547469331650063,3.0,,left,gold,0.0,89.0,2.0,right,2022_Mar_28_1818,habits_v_MRI,5.0,40.0,1.0,5.0,30.0,15.0,5.0,15.0,30.0,30.0,60.0,RR,59.99104558035764,
25.0,1.0,resp2,stim/left_resp_img.png,"[0.5, 0]",left,stim/gold_coin.png,silver,,,,,training,,,gold,val,,,,,0.0,0.0,0.0,0.0,1.0,1.0,3.0,1.0,,,,,,,,,0.0,training_resp,,220.6505854508141,17.9974695808487,3.0,,left,gold,0.0,89.0,2.0,right,2022_Mar_28_1818,habits_v_MRI,5.0,40.0,1.0,5.0,30.0,15.0,5.0,15.0,30.0,30.0,60.0,RR,59.99104558035764,
25.0,1.0,resp2,stim/left_resp_img.png,"[0.5, 0]",left,stim/gold_coin.png,silver,,,,,training,,,gold,val,,,,,0.0,0.0,0.0,0.0,1.0,1.0,3.0,1.0,,,,,,,,,0.0,training_resp,,221.11692037805915,18.464093941962343,3.0,,left,gold,0.0,89.0,2.0,right,2022_Mar_28_1818,habits_v_MRI,5.0,40.0,1.0,5.0,30.0,15.0,5.0,15.0,30.0,30.0,60.0,RR,59.99104558035764,
25.0,1.0,resp2,stim/left_resp_img.png,"[0.5, 0]",left,stim/gold_coin.png,silver,,,,,training,,,gold,val,,,,,0.0,0.0,0.0,0.0,1.0,1.0,3.0,1.0,,,,,,,,,0.0,training_resp,,221.60009348671883,18.94736968667712,3.0,,left,gold,0.0,89.0,2.0,right,2022_Mar_28_1818,habits_v_MRI,5.0,40.0,1.0,5.0,30.0,15.0,5.0,15.0,30.0,30.0,60.0,RR,59.99104558035764,
25.0,1.0,resp2,stim/left_resp_img.png,"[0.5, 0]",left,stim/gold_coin.png,silver,,,,,training,,,gold,val,,,,,0.0,0.0,0.0,0.0,1.0,1.0,3.0,1.0,,,,,,,,,0.0,training_resp,,222.05010810506064,19.397349995211695,3.0,,left,gold,0.0,89.0,2.0,right,2022_Mar_28_1818,habits_v_MRI,5.0,40.0,1.0,5.0,30.0,15.0,5.0,15.0,30.0,30.0,60.0,RR,59.99104558035764,
25.0,1.0,resp2,stim/left_resp_img.png,"[0.5, 0]",left,stim/gold_coin.png,silver,,,,,training,,,gold,val,,,,,0.0,0.0,0.0,0.0,1.0,1.0,3.0,1.0,,,,,,,,,0.0,training_resp,,222.61683577660008,19.9640061147511,3.0,,left,gold,0.0,89.0,2.0,right,2022_Mar_28_1818,habits_v_MRI,5.0,40.0,1.0,5.0,30.0,15.0,5.0,15.0,30.0,30.0,60.0,RR,59.99104558035764,
25.0,1.0,resp2,stim/left_resp_img.png,"[0.5, 0]",left,stim/gold_coin.png,silver,,,,,training,,,gold,val,,,,,0.0,0.0,0.0,0.0,1.0,1.0,3.0,1.0,,,,,,,,,0.0,training_resp,,223.0833360946272,20.43061053508427,3.0,,left,gold,0.0,89.0,2.0,right,2022_Mar_28_1818,habits_v_MRI,5.0,40.0,1.0,5.0,30.0,15.0,5.0,15.0,30.0,30.0,60.0,RR,59.99104558035764,
25.0,1.0,resp2,stim/left_resp_img.png,"[0.5, 0]",left,stim/gold_coin.png,silver,,,,,training,,,gold,val,,,,,0.0,0.0,0.0,0.0,1.0,1.0,3.0,1.0,,,,,,,,,0.0,training_resp,,223.6000128440792,20.947262651869096,3.0,,left,gold,0.0,89.0,2.0,right,2022_Mar_28_1818,habits_v_MRI,5.0,40.0,1.0,5.0,30.0,15.0,5.0,15.0,30.0,30.0,60.0,RR,59.99104558035764,
25.0,1.0,resp2,stim/left_resp_img.png,"[0.5, 0]",left,stim/gold_coin.png,silver,,,,,training,,,gold,val,,,,,0.0,0.0,0.0,0.0,1.0,1.0,3.0,1.0,,,,,,,,,0.0,training_resp,,224.10003879643045,21.44723230099771,3.0,,left,gold,0.0,89.0,2.0,right,2022_Mar_28_1818,habits_v_MRI,5.0,40.0,1.0,5.0,30.0,15.0,5.0,15.0,30.0,30.0,60.0,RR,59.99104558035764,
25.0,1.0,resp2,stim/left_resp_img.png,"[0.5, 0]",left,stim/gold_coin.png,silver,,,,,training,,,gold,val,,,,,0.0,0.0,0.0,0.0,1.0,1.0,3.0,1.0,,,,,,,,,0.0,training_resp,,224.58327026094776,21.930525933741592,3.0,15.0,left,gold,1.0,89.0,2.0,right,2022_Mar_28_1818,habits_v_MRI,5.0,40.0,1.0,5.0,30.0,15.0,5.0,15.0,30.0,30.0,60.0,RR,59.99104558035764,
25.0,1.0,resp2,stim/left_resp_img.png,"[0.5, 0]",left,stim/gold_coin.png,silver,,,,,training,,,gold,val,,,,,0.0,0.0,0.0,0.0,1.0,1.0,3.0,1.0,,,,,,,,,0.0,training_resp,,226.4665202586912,23.8137574569555,3.0,,left,gold,0.0,89.0,2.0,right,2022_Mar_28_1818,habits_v_MRI,5.0,40.0,1.0,5.0,30.0,15.0,5.0,15.0,30.0,30.0,60.0,RR,59.99104558035764,
25.0,1.0,resp2,stim/left_resp_img.png,"[0.5, 0]",left,stim/gold_coin.png,silver,,,,,training,,,gold,val,,,,,0.0,0.0,0.0,0.0,1.0,1.0,3.0,1.0,,,,,,,,,0.0,training_resp,,226.8832977967104,24.23049276752863,3.0,,left,gold,0.0,89.0,2.0,right,2022_Mar_28_1818,habits_v_MRI,5.0,40.0,1.0,5.0,30.0,15.0,5.0,15.0,30.0,30.0,60.0,RR,59.99104558035764,
25.0,1.0,resp2,stim/left_resp_img.png,"[0.5, 0]",left,stim/gold_coin.png,silver,,,,,training,,,gold,val,,,,,0.0,0.0,0.0,0.0,1.0,1.0,3.0,1.0,,,,,,,,,0.0,training_resp,,227.3164736472536,24.663704687263817,3.0,,left,gold,0.0,89.0,2.0,right,2022_Mar_28_1818,habits_v_MRI,5.0,40.0,1.0,5.0,30.0,15.0,5.0,15.0,30.0,30.0,60.0,RR,59.99104558035764,
25.0,1.0,resp2,stim/left_resp_img.png,"[0.5, 0]",left,stim/gold_coin.png,silver,,,,,training,,,gold,val,,,,,0.0,0.0,0.0,0.0,1.0,1.0,3.0,1.0,,,,,,,,,0.0,training_resp,,227.78306839044672,25.130374794709496,3.0,,left,gold,0.0,89.0,2.0,right,2022_Mar_28_1818,habits_v_MRI,5.0,40.0,1.0,5.0,30.0,15.0,5.0,15.0,30.0,30.0,60.0,RR,59.99104558035764,
25.0,1.0,resp2,stim/left_resp_img.png,"[0.5, 0]",left,stim/gold_coin.png,silver,,,,,training,,,gold,val,,,,,0.0,0.0,0.0,0.0,1.0,1.0,3.0,1.0,,,,,,,,,0.0,training_resp,,228.2330648275092,25.58035041135736,3.0,,left,gold,0.0,89.0,2.0,right,2022_Mar_28_1818,habits_v_MRI,5.0,40.0,1.0,5.0,30.0,15.0,5.0,15.0,30.0,30.0,60.0,RR,59.99104558035764,
25.0,1.0,resp2,stim/left_resp_img.png,"[0.5, 0]",left,stim/gold_coin.png,silver,,,,,training,,,gold,val,,,,,0.0,0.0,0.0,0.0,1.0,1.0,3.0,1.0,,,,,,,,,0.0,training_resp,,228.68305393343329,26.030290251947008,3.0,,left,gold,0.0,89.0,2.0,right,2022_Mar_28_1818,habits_v_MRI,5.0,40.0,1.0,5.0,30.0,15.0,5.0,15.0,30.0,30.0,60.0,RR,59.99104558035764,
25.0,1.0,resp2,stim/left_resp_img.png,"[0.5, 0]",left,stim/gold_coin.png,silver,,,,,training,,,gold,val,,,,,0.0,0.0,0.0,0.0,1.0,1.0,3.0,1.0,,,,,,,,,0.0,training_resp,,229.13301019580103,26.4802397696767,3.0,,left,gold,0.0,89.0,2.0,right,2022_Mar_28_1818,habits_v_MRI,5.0,40.0,1.0,5.0,30.0,15.0,5.0,15.0,30.0,30.0,60.0,RR,59.99104558035764,
25.0,1.0,resp2,stim/left_resp_img.png,"[0.5, 0]",left,stim/gold_coin.png,silver,,,,,training,,,gold,val,,,,,0.0,0.0,0.0,0.0,1.0,1.0,3.0,1.0,,,,,,,,,0.0,training_resp,,229.59999114391397,26.946905478369445,3.0,,left,gold,0.0,89.0,2.0,right,2022_Mar_28_1818,habits_v_MRI,5.0,40.0,1.0,5.0,30.0,15.0,5.0,15.0,30.0,30.0,60.0,RR,59.99104558035764,
25.0,1.0,resp2,stim/left_resp_img.png,"[0.5, 0]",left,stim/gold_coin.png,silver,,,,,training,,,gold,val,,,,,0.0,0.0,0.0,0.0,1.0,1.0,3.0,1.0,,,,,,,,,0.0,training_resp,,230.0829598600976,27.430212600389492,3.0,,left,gold,0.0,89.0,2.0,right,2022_Mar_28_1818,habits_v_MRI,5.0,40.0,1.0,5.0,30.0,15.0,5.0,15.0,30.0,30.0,60.0,RR,59.99104558035764,
25.0,1.0,resp2,stim/left_resp_img.png,"[0.5, 0]",left,stim/gold_coin.png,silver,,,,,training,,,gold,val,,,,,0.0,0.0,0.0,0.0,1.0,1.0,3.0,1.0,,,,,,,,,0.0,training_resp,,230.53291348333005,27.880178539897315,3.0,,left,gold,0.0,89.0,2.0,right,2022_Mar_28_1818,habits_v_MRI,5.0,40.0,1.0,5.0,30.0,15.0,5.0,15.0,30.0,30.0,60.0,RR,59.99104558035764,
25.0,1.0,resp2,stim/left_resp_img.png,"[0.5, 0]",left,stim/gold_coin.png,silver,,,,,training,,,gold,val,,,,,0.0,0.0,0.0,0.0,1.0,1.0,3.0,1.0,,,,,,,,,0.0,training_resp,,230.98300434555856,28.330176443210803,3.0,,left,gold,0.0,89.0,2.0,right,2022_Mar_28_1818,habits_v_MRI,5.0,40.0,1.0,5.0,30.0,15.0,5.0,15.0,30.0,30.0,60.0,RR,59.99104558035764,
25.0,1.0,resp2,stim/left_resp_img.png,"[0.5, 0]",left,stim/gold_coin.png,silver,,,,,training,,,gold,val,,,,,0.0,0.0,0.0,0.0,1.0,1.0,3.0,1.0,,,,,,,,,0.0,training_resp,,231.4495363341412,28.796791420318183,3.0,,left,gold,0.0,89.0,2.0,right,2022_Mar_28_1818,habits_v_MRI,5.0,40.0,1.0,5.0,30.0,15.0,5.0,15.0,30.0,30.0,60.0,RR,59.99104558035764,
25.0,1.0,resp2,stim/left_resp_img.png,"[0.5, 0]",left,stim/gold_coin.png,silver,,,,,training,,,gold,val,,,,,0.0,0.0,0.0,0.0,1.0,1.0,3.0,1.0,,,,,,,,,0.0,training_resp,,231.9162205173634,29.26344510598574,3.0,,left,gold,0.0,89.0,2.0,right,2022_Mar_28_1818,habits_v_MRI,5.0,40.0,1.0,5.0,30.0,15.0,5.0,15.0,30.0,30.0,60.0,RR,59.99104558035764,
25.0,1.0,resp2,stim/left_resp_img.png,"[0.5, 0]",left,stim/gold_coin.png,silver,,,,,training,,,gold,val,,,,,0.0,0.0,0.0,0.0,1.0,1.0,3.0,1.0,,,,,,,,,0.0,training_resp,,232.38288593280595,29.73005656420719,3.0,,left,gold,0.0,89.0,2.0,right,2022_Mar_28_1818,habits_v_MRI,5.0,40.0,1.0,5.0,30.0,15.0,5.0,15.0,30.0,30.0,60.0,RR,59.99104558035764,
25.0,1.0,resp2,stim/left_resp_img.png,"[0.5, 0]",left,stim/gold_coin.png,silver,,,,,training,,,gold,val,,,,,0.0,0.0,0.0,0.0,1.0,1.0,3.0,1.0,,,,,,,,,0.0,training_resp,,232.8661860169377,30.213409725925885,3.0,15.0,left,gold,1.0,89.0,2.0,right,2022_Mar_28_1818,habits_v_MRI,5.0,40.0,1.0,5.0,30.0,15.0,5.0,15.0,30.0,30.0,60.0,RR,59.99104558035764,
25.0,1.0,resp2,stim/left_resp_img.png,"[0.5, 0]",left,stim/gold_coin.png,silver,,,,,training,,,gold,val,,,,,0.0,0.0,0.0,0.0,1.0,1.0,3.0,1.0,,,,,,,,,0.0,ITI_start,20.0,239.83176744892265,37.17956504004542,,,,,,89.0,2.0,right,2022_Mar_28_1818,habits_v_MRI,5.0,40.0,1.0,5.0,30.0,15.0,5.0,15.0,30.0,30.0,60.0,RR,59.99104558035764,
25.0,0.0,resp1,stim/right_resp_img.png,"[-0.5, 0]",right,stim/silver_coin.png,silver,,,,,training,,,silver,deval,,,,,0.0,0.0,0.0,0.0,2.0,0.0,4.0,0.0,,,,,,,,,0.0,training_period_start,52.5,259.8684947422007,0.0,4.0,14.0,,,,89.0,2.0,right,2022_Mar_28_1818,habits_v_MRI,5.0,40.0,1.0,5.0,30.0,15.0,5.0,15.0,30.0,30.0,60.0,RR,59.99104558035764,
25.0,0.0,resp1,stim/right_resp_img.png,"[-0.5, 0]",right,stim/silver_coin.png,silver,,,,,training,,,silver,deval,,,,,0.0,0.0,0.0,0.0,2.0,0.0,4.0,0.0,,,,,,,,,0.0,training_resp,,260.614449634566,0.7649842072278261,4.0,,right,silver,0.0,89.0,2.0,right,2022_Mar_28_1818,habits_v_MRI,5.0,40.0,1.0,5.0,30.0,15.0,5.0,15.0,30.0,30.0,60.0,RR,59.99104558035764,
25.0,0.0,resp1,stim/right_resp_img.png,"[-0.5, 0]",right,stim/silver_coin.png,silver,,,,,training,,,silver,deval,,,,,0.0,0.0,0.0,0.0,2.0,0.0,4.0,0.0,,,,,,,,,0.0,training_resp,,261.06428654585034,1.214942815597169,4.0,,right,silver,0.0,89.0,2.0,right,2022_Mar_28_1818,habits_v_MRI,5.0,40.0,1.0,5.0,30.0,15.0,5.0,15.0,30.0,30.0,60.0,RR,59.99104558035764,
25.0,0.0,resp1,stim/right_resp_img.png,"[-0.5, 0]",right,stim/silver_coin.png,silver,,,,,training,,,silver,deval,,,,,0.0,0.0,0.0,0.0,2.0,0.0,4.0,0.0,,,,,,,,,0.0,training_resp,,261.4976483142236,1.6482647025259212,4.0,,right,silver,0.0,89.0,2.0,right,2022_Mar_28_1818,habits_v_MRI,5.0,40.0,1.0,5.0,30.0,15.0,5.0,15.0,30.0,30.0,60.0,RR,59.99104558035764,
25.0,0.0,resp1,stim/right_resp_img.png,"[-0.5, 0]",right,stim/silver_coin.png,silver,,,,,training,,,silver,deval,,,,,0.0,0.0,0.0,0.0,2.0,0.0,4.0,0.0,,,,,,,,,0.0,training_resp,,261.914261634578,2.0649149718228728,4.0,,right,silver,0.0,89.0,2.0,right,2022_Mar_28_1818,habits_v_MRI,5.0,40.0,1.0,5.0,30.0,15.0,5.0,15.0,30.0,30.0,60.0,RR,59.99104558035764,
25.0,0.0,resp1,stim/right_resp_img.png,"[-0.5, 0]",right,stim/silver_coin.png,silver,,,,,training,,,silver,deval,,,,,0.0,0.0,0.0,0.0,2.0,0.0,4.0,0.0,,,,,,,,,0.0,training_resp,,262.3476292678388,2.4982104666996747,4.0,,right,silver,0.0,89.0,2.0,right,2022_Mar_28_1818,habits_v_MRI,5.0,40.0,1.0,5.0,30.0,15.0,5.0,15.0,30.0,30.0,60.0,RR,59.99104558035764,
25.0,0.0,resp1,stim/right_resp_img.png,"[-0.5, 0]",right,stim/silver_coin.png,silver,,,,,training,,,silver,deval,,,,,0.0,0.0,0.0,0.0,2.0,0.0,4.0,0.0,,,,,,,,,0.0,training_resp,,262.7474961929256,2.8981372138950974,4.0,,right,silver,0.0,89.0,2.0,right,2022_Mar_28_1818,habits_v_MRI,5.0,40.0,1.0,5.0,30.0,15.0,5.0,15.0,30.0,30.0,60.0,RR,59.99104558035764,
25.0,0.0,resp1,stim/right_resp_img.png,"[-0.5, 0]",right,stim/silver_coin.png,silver,,,,,training,,,silver,deval,,,,,0.0,0.0,0.0,0.0,2.0,0.0,4.0,0.0,,,,,,,,,0.0,training_resp,,263.1641746137757,3.3147933480795477,4.0,,right,silver,0.0,89.0,2.0,right,2022_Mar_28_1818,habits_v_MRI,5.0,40.0,1.0,5.0,30.0,15.0,5.0,15.0,30.0,30.0,60.0,RR,59.99104558035764,
25.0,0.0,resp1,stim/right_resp_img.png,"[-0.5, 0]",right,stim/silver_coin.png,silver,,,,,training,,,silver,deval,,,,,0.0,0.0,0.0,0.0,2.0,0.0,4.0,0.0,,,,,,,,,0.0,training_resp,,263.5808037694078,3.7314708892954513,4.0,,right,silver,0.0,89.0,2.0,right,2022_Mar_28_1818,habits_v_MRI,5.0,40.0,1.0,5.0,30.0,15.0,5.0,15.0,30.0,30.0,60.0,RR,59.99104558035764,
25.0,0.0,resp1,stim/right_resp_img.png,"[-0.5, 0]",right,stim/silver_coin.png,silver,,,,,training,,,silver,deval,,,,,0.0,0.0,0.0,0.0,2.0,0.0,4.0,0.0,,,,,,,,,0.0,training_resp,,264.01410102378577,4.1647262094775215,4.0,,right,silver,0.0,89.0,2.0,right,2022_Mar_28_1818,habits_v_MRI,5.0,40.0,1.0,5.0,30.0,15.0,5.0,15.0,30.0,30.0,60.0,RR,59.99104558035764,
25.0,0.0,resp1,stim/right_resp_img.png,"[-0.5, 0]",right,stim/silver_coin.png,silver,,,,,training,,,silver,deval,,,,,0.0,0.0,0.0,0.0,2.0,0.0,4.0,0.0,,,,,,,,,0.0,training_resp,,264.4474328811048,4.5980730223236606,4.0,,right,silver,0.0,89.0,2.0,right,2022_Mar_28_1818,habits_v_MRI,5.0,40.0,1.0,5.0,30.0,15.0,5.0,15.0,30.0,30.0,60.0,RR,59.99104558035764,
25.0,0.0,resp1,stim/right_resp_img.png,"[-0.5, 0]",right,stim/silver_coin.png,silver,,,,,training,,,silver,deval,,,,,0.0,0.0,0.0,0.0,2.0,0.0,4.0,0.0,,,,,,,,,0.0,training_resp,,264.8974700793624,5.048036909080111,4.0,,right,silver,0.0,89.0,2.0,right,2022_Mar_28_1818,habits_v_MRI,5.0,40.0,1.0,5.0,30.0,15.0,5.0,15.0,30.0,30.0,60.0,RR,59.99104558035764,
25.0,0.0,resp1,stim/right_resp_img.png,"[-0.5, 0]",right,stim/silver_coin.png,silver,,,,,training,,,silver,deval,,,,,0.0,0.0,0.0,0.0,2.0,0.0,4.0,0.0,,,,,,,,,0.0,training_resp,,265.33074387395754,5.481388120679185,4.0,,right,silver,0.0,89.0,2.0,right,2022_Mar_28_1818,habits_v_MRI,5.0,40.0,1.0,5.0,30.0,15.0,5.0,15.0,30.0,30.0,60.0,RR,59.99104558035764,
25.0,0.0,resp1,stim/right_resp_img.png,"[-0.5, 0]",right,stim/silver_coin.png,silver,,,,,training,,,silver,deval,,,,,0.0,0.0,0.0,0.0,2.0,0.0,4.0,0.0,,,,,,,,,0.0,training_resp,,265.7639892237494,5.914629071718082,4.0,,right,silver,0.0,89.0,2.0,right,2022_Mar_28_1818,habits_v_MRI,5.0,40.0,1.0,5.0,30.0,15.0,5.0,15.0,30.0,30.0,60.0,RR,59.99104558035764,
25.0,0.0,resp1,stim/right_resp_img.png,"[-0.5, 0]",right,stim/silver_coin.png,silver,,,,,training,,,silver,deval,,,,,0.0,0.0,0.0,0.0,2.0,0.0,4.0,0.0,,,,,,,,,0.0,training_resp,,266.214401776786,6.364585627336055,4.0,18.0,right,silver,1.0,89.0,2.0,right,2022_Mar_28_1818,habits_v_MRI,5.0,40.0,1.0,5.0,30.0,15.0,5.0,15.0,30.0,30.0,60.0,RR,59.99104558035764,
25.0,0.0,resp1,stim/right_resp_img.png,"[-0.5, 0]",right,stim/silver_coin.png,silver,,,,,training,,,silver,deval,,,,,0.0,0.0,0.0,0.0,2.0,0.0,4.0,0.0,,,,,,,,,0.0,training_resp,,267.33064035815187,7.481243550428189,4.0,,right,silver,0.0,89.0,2.0,right,2022_Mar_28_1818,habits_v_MRI,5.0,40.0,1.0,5.0,30.0,15.0,5.0,15.0,30.0,30.0,60.0,RR,59.99104558035764,
25.0,0.0,resp1,stim/right_resp_img.png,"[-0.5, 0]",right,stim/silver_coin.png,silver,,,,,training,,,silver,deval,,,,,0.0,0.0,0.0,0.0,2.0,0.0,4.0,0.0,,,,,,,,,0.0,training_resp,,267.7972163336817,7.947814833954908,4.0,,right,silver,0.0,89.0,2.0,right,2022_Mar_28_1818,habits_v_MRI,5.0,40.0,1.0,5.0,30.0,15.0,5.0,15.0,30.0,30.0,60.0,RR,59.99104558035764,
25.0,0.0,resp1,stim/right_resp_img.png,"[-0.5, 0]",right,stim/silver_coin.png,silver,,,,,training,,,silver,deval,,,,,0.0,0.0,0.0,0.0,2.0,0.0,4.0,0.0,,,,,,,,,0.0,training_resp,,268.2971865691943,8.447819965775125,4.0,,right,silver,0.0,89.0,2.0,right,2022_Mar_28_1818,habits_v_MRI,5.0,40.0,1.0,5.0,30.0,15.0,5.0,15.0,30.0,30.0,60.0,RR,59.99104558035764,
25.0,0.0,resp1,stim/right_resp_img.png,"[-0.5, 0]",right,stim/silver_coin.png,silver,,,,,training,,,silver,deval,,,,,0.0,0.0,0.0,0.0,2.0,0.0,4.0,0.0,,,,,,,,,0.0,training_resp,,268.7138412372442,8.864436511765234,4.0,,right,silver,0.0,89.0,2.0,right,2022_Mar_28_1818,habits_v_MRI,5.0,40.0,1.0,5.0,30.0,15.0,5.0,15.0,30.0,30.0,60.0,RR,59.99104558035764,
25.0,0.0,resp1,stim/right_resp_img.png,"[-0.5, 0]",right,stim/silver_coin.png,silver,,,,,training,,,silver,deval,,,,,0.0,0.0,0.0,0.0,2.0,0.0,4.0,0.0,,,,,,,,,0.0,training_resp,,269.213870708365,9.364446335588582,4.0,,right,silver,0.0,89.0,2.0,right,2022_Mar_28_1818,habits_v_MRI,5.0,40.0,1.0,5.0,30.0,15.0,5.0,15.0,30.0,30.0,60.0,RR,59.99104558035764,
25.0,0.0,resp1,stim/right_resp_img.png,"[-0.5, 0]",right,stim/silver_coin.png,silver,,,,,training,,,silver,deval,,,,,0.0,0.0,0.0,0.0,2.0,0.0,4.0,0.0,,,,,,,,,0.0,training_resp,,269.74709180672653,9.89769235975109,4.0,,right,silver,0.0,89.0,2.0,right,2022_Mar_28_1818,habits_v_MRI,5.0,40.0,1.0,5.0,30.0,15.0,5.0,15.0,30.0,30.0,60.0,RR,59.99104558035764,
25.0,0.0,resp1,stim/right_resp_img.png,"[-0.5, 0]",right,stim/silver_coin.png,silver,,,,,training,,,silver,deval,,,,,0.0,0.0,0.0,0.0,2.0,0.0,4.0,0.0,,,,,,,,,0.0,training_resp,,270.2470928331604,10.397673152154312,4.0,,right,silver,0.0,89.0,2.0,right,2022_Mar_28_1818,habits_v_MRI,5.0,40.0,1.0,5.0,30.0,15.0,5.0,15.0,30.0,30.0,60.0,RR,59.99104558035764,
25.0,0.0,resp1,stim/right_resp_img.png,"[-0.5, 0]",right,stim/silver_coin.png,silver,,,,,training,,,silver,deval,,,,,0.0,0.0,0.0,0.0,2.0,0.0,4.0,0.0,,,,,,,,,0.0,training_resp,,270.7638027193025,10.914411483332517,4.0,,right,silver,0.0,89.0,2.0,right,2022_Mar_28_1818,habits_v_MRI,5.0,40.0,1.0,5.0,30.0,15.0,5.0,15.0,30.0,30.0,60.0,RR,59.99104558035764,
25.0,0.0,resp1,stim/right_resp_img.png,"[-0.5, 0]",right,stim/silver_coin.png,silver,,,,,training,,,silver,deval,,,,,0.0,0.0,0.0,0.0,2.0,0.0,4.0,0.0,,,,,,,,,0.0,training_resp,,271.24703652993776,11.397693972685374,4.0,,right,silver,0.0,89.0,2.0,right,2022_Mar_28_1818,habits_v_MRI,5.0,40.0,1.0,5.0,30.0,15.0,5.0,15.0,30.0,30.0,60.0,RR,59.99104558035764,
25.0,0.0,resp1,stim/right_resp_img.png,"[-0.5, 0]",right,stim/silver_coin.png,silver,,,,,training,,,silver,deval,,,,,0.0,0.0,0.0,0.0,2.0,0.0,4.0,0.0,,,,,,,,,0.0,training_resp,,271.74698711792007,11.897561865393072,4.0,,right,silver,0.0,89.0,2.0,right,2022_Mar_28_1818,habits_v_MRI,5.0,40.0,1.0,5.0,30.0,15.0,5.0,15.0,30.0,30.0,60.0,RR,59.99104558035764,
