list,trial_num_python,condition,stimulus,position,corrResp,coin_img,devalued_coin,stimulus_choice1,stimulus_choice2,position1,position2,phase,corrResp1,corrResp2,outcome,cond_val,outcome_choice1,outcome_choice2,cond_val1,cond_val2,blockLoop.thisRepN,blockLoop.thisTrialN,blockLoop.thisN,blockLoop.thisIndex,trialLoop.thisRepN,trialLoop.thisTrialN,trialLoop.thisN,trialLoop.thisIndex,choice_trialLoop.thisRepN,choice_trialLoop.thisTrialN,choice_trialLoop.thisN,choice_trialLoop.thisIndex,contingency_trialLoop.thisRepN,contingency_trialLoop.thisTrialN,contingency_trialLoop.thisN,contingency_trialLoop.thisIndex,run,event,duration,globalClock_t,routineClock_t,trial,nResp_untilRnf,resp,selected_coin,wasRnf,participant,task_ordering,hand,date,expName,n_repeat_training,credits_per_rnf,cost_response,min_resp_bet_rnf,max_resp_bet_rnf,mean_resp_bet_rnf,sigma_resp_bet_rnf,min_ITI,max_ITI,min_trial_duration,max_trial_duration,schedule,frameRate,Unnamed: 65
28.0,0.0,resp1,stim/left_resp_img.png,"[0.5, 0]",left,stim/silver_coin.png,gold,,,,,training,,,silver,val,,,,,0.0,0.0,0.0,0.0,0.0,0.0,0.0,0.0,,,,,,,,,0.0,instr_before_block,6.0,0.0054459022358059,,,,,,,28.0,1.0,right,2021_Oct_12_1615,habits_v_MRI,5.0,40.0,1.0,5.0,30.0,15.0,5.0,15.0,30.0,30.0,60.0,RR,59.7933584823933,
28.0,0.0,resp1,stim/left_resp_img.png,"[0.5, 0]",left,stim/silver_coin.png,gold,,,,,training,,,silver,val,,,,,0.0,0.0,0.0,0.0,0.0,0.0,0.0,0.0,,,,,,,,,0.0,training_period_start,30.0,6.042928523384035,0.0,0.0,12.0,,,,28.0,1.0,right,2021_Oct_12_1615,habits_v_MRI,5.0,40.0,1.0,5.0,30.0,15.0,5.0,15.0,30.0,30.0,60.0,RR,59.7933584823933,
28.0,0.0,resp1,stim/left_resp_img.png,"[0.5, 0]",left,stim/silver_coin.png,gold,,,,,training,,,silver,val,,,,,0.0,0.0,0.0,0.0,0.0,0.0,0.0,0.0,,,,,,,,,0.0,training_resp,,7.209065927192569,1.185959478840232,0.0,,left,silver,0.0,28.0,1.0,right,2021_Oct_12_1615,habits_v_MRI,5.0,40.0,1.0,5.0,30.0,15.0,5.0,15.0,30.0,30.0,60.0,RR,59.7933584823933,
28.0,0.0,resp1,stim/left_resp_img.png,"[0.5, 0]",left,stim/silver_coin.png,gold,,,,,training,,,silver,val,,,,,0.0,0.0,0.0,0.0,0.0,0.0,0.0,0.0,,,,,,,,,0.0,training_resp,,8.028044153004885,2.0051327142864466,0.0,,left,silver,0.0,28.0,1.0,right,2021_Oct_12_1615,habits_v_MRI,5.0,40.0,1.0,5.0,30.0,15.0,5.0,15.0,30.0,30.0,60.0,RR,59.7933584823933,
28.0,0.0,resp1,stim/left_resp_img.png,"[0.5, 0]",left,stim/silver_coin.png,gold,,,,,training,,,silver,val,,,,,0.0,0.0,0.0,0.0,0.0,0.0,0.0,0.0,,,,,,,,,0.0,training_resp,,11.55574036668986,5.532764120027423,0.0,,left,silver,0.0,28.0,1.0,right,2021_Oct_12_1615,habits_v_MRI,5.0,40.0,1.0,5.0,30.0,15.0,5.0,15.0,30.0,30.0,60.0,RR,59.7933584823933,
28.0,0.0,resp1,stim/left_resp_img.png,"[0.5, 0]",left,stim/silver_coin.png,gold,,,,,training,,,silver,val,,,,,0.0,0.0,0.0,0.0,0.0,0.0,0.0,0.0,,,,,,,,,0.0,training_resp,,12.224369935691357,6.201488994993269,0.0,,left,silver,0.0,28.0,1.0,right,2021_Oct_12_1615,habits_v_MRI,5.0,40.0,1.0,5.0,30.0,15.0,5.0,15.0,30.0,30.0,60.0,RR,59.7933584823933,
28.0,0.0,resp1,stim/left_resp_img.png,"[0.5, 0]",left,stim/silver_coin.png,gold,,,,,training,,,silver,val,,,,,0.0,0.0,0.0,0.0,0.0,0.0,0.0,0.0,,,,,,,,,0.0,training_resp,,13.110542634502051,7.087644391693175,0.0,,left,silver,0.0,28.0,1.0,right,2021_Oct_12_1615,habits_v_MRI,5.0,40.0,1.0,5.0,30.0,15.0,5.0,15.0,30.0,30.0,60.0,RR,59.7933584823933,
28.0,0.0,resp1,stim/left_resp_img.png,"[0.5, 0]",left,stim/silver_coin.png,gold,,,,,training,,,silver,val,,,,,0.0,0.0,0.0,0.0,0.0,0.0,0.0,0.0,,,,,,,,,0.0,training_resp,,13.428144209086897,7.405235702171922,0.0,,left,silver,0.0,28.0,1.0,right,2021_Oct_12_1615,habits_v_MRI,5.0,40.0,1.0,5.0,30.0,15.0,5.0,15.0,30.0,30.0,60.0,RR,59.7933584823933,
28.0,0.0,resp1,stim/left_resp_img.png,"[0.5, 0]",left,stim/silver_coin.png,gold,,,,,training,,,silver,val,,,,,0.0,0.0,0.0,0.0,0.0,0.0,0.0,0.0,,,,,,,,,0.0,training_resp,,14.582068727351723,8.558856123127043,0.0,,left,silver,0.0,28.0,1.0,right,2021_Oct_12_1615,habits_v_MRI,5.0,40.0,1.0,5.0,30.0,15.0,5.0,15.0,30.0,30.0,60.0,RR,59.7933584823933,
28.0,0.0,resp1,stim/left_resp_img.png,"[0.5, 0]",left,stim/silver_coin.png,gold,,,,,training,,,silver,val,,,,,0.0,0.0,0.0,0.0,0.0,0.0,0.0,0.0,,,,,,,,,0.0,training_resp,,15.50128867663443,9.47834527399391,0.0,,left,silver,0.0,28.0,1.0,right,2021_Oct_12_1615,habits_v_MRI,5.0,40.0,1.0,5.0,30.0,15.0,5.0,15.0,30.0,30.0,60.0,RR,59.7933584823933,
28.0,0.0,resp1,stim/left_resp_img.png,"[0.5, 0]",left,stim/silver_coin.png,gold,,,,,training,,,silver,val,,,,,0.0,0.0,0.0,0.0,0.0,0.0,0.0,0.0,,,,,,,,,0.0,training_resp,,16.487739462405443,10.46479048859328,0.0,,left,silver,0.0,28.0,1.0,right,2021_Oct_12_1615,habits_v_MRI,5.0,40.0,1.0,5.0,30.0,15.0,5.0,15.0,30.0,30.0,60.0,RR,59.7933584823933,
28.0,0.0,resp1,stim/left_resp_img.png,"[0.5, 0]",left,stim/silver_coin.png,gold,,,,,training,,,silver,val,,,,,0.0,0.0,0.0,0.0,0.0,0.0,0.0,0.0,,,,,,,,,0.0,training_resp,,16.788718294352293,10.765636771917343,0.0,,left,silver,0.0,28.0,1.0,right,2021_Oct_12_1615,habits_v_MRI,5.0,40.0,1.0,5.0,30.0,15.0,5.0,15.0,30.0,30.0,60.0,RR,59.7933584823933,
28.0,0.0,resp1,stim/left_resp_img.png,"[0.5, 0]",left,stim/silver_coin.png,gold,,,,,training,,,silver,val,,,,,0.0,0.0,0.0,0.0,0.0,0.0,0.0,0.0,,,,,,,,,0.0,training_resp,,17.524097478948534,11.501199529506266,0.0,,left,silver,0.0,28.0,1.0,right,2021_Oct_12_1615,habits_v_MRI,5.0,40.0,1.0,5.0,30.0,15.0,5.0,15.0,30.0,30.0,60.0,RR,59.7933584823933,
28.0,0.0,resp1,stim/left_resp_img.png,"[0.5, 0]",left,stim/silver_coin.png,gold,,,,,training,,,silver,val,,,,,0.0,0.0,0.0,0.0,0.0,0.0,0.0,0.0,,,,,,,,,0.0,training_resp,,17.825064580887556,11.802185692824423,0.0,17.0,left,silver,1.0,28.0,1.0,right,2021_Oct_12_1615,habits_v_MRI,5.0,40.0,1.0,5.0,30.0,15.0,5.0,15.0,30.0,30.0,60.0,RR,59.7933584823933,
28.0,0.0,resp1,stim/left_resp_img.png,"[0.5, 0]",left,stim/silver_coin.png,gold,,,,,training,,,silver,val,,,,,0.0,0.0,0.0,0.0,0.0,0.0,0.0,0.0,,,,,,,,,0.0,training_resp,,19.864887611940503,13.841878521256149,0.0,,left,silver,0.0,28.0,1.0,right,2021_Oct_12_1615,habits_v_MRI,5.0,40.0,1.0,5.0,30.0,15.0,5.0,15.0,30.0,30.0,60.0,RR,59.7933584823933,
28.0,0.0,resp1,stim/left_resp_img.png,"[0.5, 0]",left,stim/silver_coin.png,gold,,,,,training,,,silver,val,,,,,0.0,0.0,0.0,0.0,0.0,0.0,0.0,0.0,,,,,,,,,0.0,training_resp,,20.249284256249663,14.22632619086653,0.0,,left,silver,0.0,28.0,1.0,right,2021_Oct_12_1615,habits_v_MRI,5.0,40.0,1.0,5.0,30.0,15.0,5.0,15.0,30.0,30.0,60.0,RR,59.7933584823933,
28.0,0.0,resp1,stim/left_resp_img.png,"[0.5, 0]",left,stim/silver_coin.png,gold,,,,,training,,,silver,val,,,,,0.0,0.0,0.0,0.0,0.0,0.0,0.0,0.0,,,,,,,,,0.0,training_resp,,20.483360395766795,14.460419338196516,0.0,,left,silver,0.0,28.0,1.0,right,2021_Oct_12_1615,habits_v_MRI,5.0,40.0,1.0,5.0,30.0,15.0,5.0,15.0,30.0,30.0,60.0,RR,59.7933584823933,
28.0,0.0,resp1,stim/left_resp_img.png,"[0.5, 0]",left,stim/silver_coin.png,gold,,,,,training,,,silver,val,,,,,0.0,0.0,0.0,0.0,0.0,0.0,0.0,0.0,,,,,,,,,0.0,training_resp,,21.18558382801712,15.162623124197124,0.0,,left,silver,0.0,28.0,1.0,right,2021_Oct_12_1615,habits_v_MRI,5.0,40.0,1.0,5.0,30.0,15.0,5.0,15.0,30.0,30.0,60.0,RR,59.7933584823933,
28.0,0.0,resp1,stim/left_resp_img.png,"[0.5, 0]",left,stim/silver_coin.png,gold,,,,,training,,,silver,val,,,,,0.0,0.0,0.0,0.0,0.0,0.0,0.0,0.0,,,,,,,,,0.0,training_resp,,21.352827948518097,15.329825016669927,0.0,,left,silver,0.0,28.0,1.0,right,2021_Oct_12_1615,habits_v_MRI,5.0,40.0,1.0,5.0,30.0,15.0,5.0,15.0,30.0,30.0,60.0,RR,59.7933584823933,
28.0,0.0,resp1,stim/left_resp_img.png,"[0.5, 0]",left,stim/silver_coin.png,gold,,,,,training,,,silver,val,,,,,0.0,0.0,0.0,0.0,0.0,0.0,0.0,0.0,,,,,,,,,0.0,training_resp,,22.28891784884036,16.266031042672694,0.0,,left,silver,0.0,28.0,1.0,right,2021_Oct_12_1615,habits_v_MRI,5.0,40.0,1.0,5.0,30.0,15.0,5.0,15.0,30.0,30.0,60.0,RR,59.7933584823933,
28.0,0.0,resp1,stim/left_resp_img.png,"[0.5, 0]",left,stim/silver_coin.png,gold,,,,,training,,,silver,val,,,,,0.0,0.0,0.0,0.0,0.0,0.0,0.0,0.0,,,,,,,,,0.0,training_resp,,22.506262743845586,16.483381509780884,0.0,,left,silver,0.0,28.0,1.0,right,2021_Oct_12_1615,habits_v_MRI,5.0,40.0,1.0,5.0,30.0,15.0,5.0,15.0,30.0,30.0,60.0,RR,59.7933584823933,
28.0,0.0,resp1,stim/left_resp_img.png,"[0.5, 0]",left,stim/silver_coin.png,gold,,,,,training,,,silver,val,,,,,0.0,0.0,0.0,0.0,0.0,0.0,0.0,0.0,,,,,,,,,0.0,training_resp,,22.723741065710783,16.70076599251479,0.0,,right,,,28.0,1.0,right,2021_Oct_12_1615,habits_v_MRI,5.0,40.0,1.0,5.0,30.0,15.0,5.0,15.0,30.0,30.0,60.0,RR,59.7933584823933,
28.0,0.0,resp1,stim/left_resp_img.png,"[0.5, 0]",left,stim/silver_coin.png,gold,,,,,training,,,silver,val,,,,,0.0,0.0,0.0,0.0,0.0,0.0,0.0,0.0,,,,,,,,,0.0,training_resp,,23.643136670812964,17.620228458195925,0.0,,left,silver,0.0,28.0,1.0,right,2021_Oct_12_1615,habits_v_MRI,5.0,40.0,1.0,5.0,30.0,15.0,5.0,15.0,30.0,30.0,60.0,RR,59.7933584823933,
28.0,0.0,resp1,stim/left_resp_img.png,"[0.5, 0]",left,stim/silver_coin.png,gold,,,,,training,,,silver,val,,,,,0.0,0.0,0.0,0.0,0.0,0.0,0.0,0.0,,,,,,,,,0.0,training_resp,,24.9138200879097,18.89092301763594,0.0,,left,silver,0.0,28.0,1.0,right,2021_Oct_12_1615,habits_v_MRI,5.0,40.0,1.0,5.0,30.0,15.0,5.0,15.0,30.0,30.0,60.0,RR,59.7933584823933,
28.0,0.0,resp1,stim/left_resp_img.png,"[0.5, 0]",left,stim/silver_coin.png,gold,,,,,training,,,silver,val,,,,,0.0,0.0,0.0,0.0,0.0,0.0,0.0,0.0,,,,,,,,,0.0,training_resp,,25.198128962889317,19.17520110215992,0.0,,left,silver,0.0,28.0,1.0,right,2021_Oct_12_1615,habits_v_MRI,5.0,40.0,1.0,5.0,30.0,15.0,5.0,15.0,30.0,30.0,60.0,RR,59.7933584823933,
28.0,0.0,resp1,stim/left_resp_img.png,"[0.5, 0]",left,stim/silver_coin.png,gold,,,,,training,,,silver,val,,,,,0.0,0.0,0.0,0.0,0.0,0.0,0.0,0.0,,,,,,,,,0.0,training_resp,,25.900270872749388,19.87732922937721,0.0,,left,silver,0.0,28.0,1.0,right,2021_Oct_12_1615,habits_v_MRI,5.0,40.0,1.0,5.0,30.0,15.0,5.0,15.0,30.0,30.0,60.0,RR,59.7933584823933,
28.0,0.0,resp1,stim/left_resp_img.png,"[0.5, 0]",left,stim/silver_coin.png,gold,,,,,training,,,silver,val,,,,,0.0,0.0,0.0,0.0,0.0,0.0,0.0,0.0,,,,,,,,,0.0,training_resp,,26.284777192398906,20.261752559803423,0.0,,left,silver,0.0,28.0,1.0,right,2021_Oct_12_1615,habits_v_MRI,5.0,40.0,1.0,5.0,30.0,15.0,5.0,15.0,30.0,30.0,60.0,RR,59.7933584823933,
28.0,0.0,resp1,stim/left_resp_img.png,"[0.5, 0]",left,stim/silver_coin.png,gold,,,,,training,,,silver,val,,,,,0.0,0.0,0.0,0.0,0.0,0.0,0.0,0.0,,,,,,,,,0.0,training_resp,,27.32131027802825,21.29836423601955,0.0,,left,silver,0.0,28.0,1.0,right,2021_Oct_12_1615,habits_v_MRI,5.0,40.0,1.0,5.0,30.0,15.0,5.0,15.0,30.0,30.0,60.0,RR,59.7933584823933,
28.0,0.0,resp1,stim/left_resp_img.png,"[0.5, 0]",left,stim/silver_coin.png,gold,,,,,training,,,silver,val,,,,,0.0,0.0,0.0,0.0,0.0,0.0,0.0,0.0,,,,,,,,,0.0,training_resp,,27.83989206142724,21.81677564233541,0.0,,left,silver,0.0,28.0,1.0,right,2021_Oct_12_1615,habits_v_MRI,5.0,40.0,1.0,5.0,30.0,15.0,5.0,15.0,30.0,30.0,60.0,RR,59.7933584823933,
28.0,0.0,resp1,stim/left_resp_img.png,"[0.5, 0]",left,stim/silver_coin.png,gold,,,,,training,,,silver,val,,,,,0.0,0.0,0.0,0.0,0.0,0.0,0.0,0.0,,,,,,,,,0.0,training_resp,,28.524956988170743,22.502059332095087,0.0,,left,silver,0.0,28.0,1.0,right,2021_Oct_12_1615,habits_v_MRI,5.0,40.0,1.0,5.0,30.0,15.0,5.0,15.0,30.0,30.0,60.0,RR,59.7933584823933,
28.0,0.0,resp1,stim/left_resp_img.png,"[0.5, 0]",left,stim/silver_coin.png,gold,,,,,training,,,silver,val,,,,,0.0,0.0,0.0,0.0,0.0,0.0,0.0,0.0,,,,,,,,,0.0,training_resp,,28.976378608495,22.95349796116352,0.0,,left,silver,0.0,28.0,1.0,right,2021_Oct_12_1615,habits_v_MRI,5.0,40.0,1.0,5.0,30.0,15.0,5.0,15.0,30.0,30.0,60.0,RR,59.7933584823933,
28.0,0.0,resp1,stim/left_resp_img.png,"[0.5, 0]",left,stim/silver_coin.png,gold,,,,,training,,,silver,val,,,,,0.0,0.0,0.0,0.0,0.0,0.0,0.0,0.0,,,,,,,,,0.0,training_resp,,29.29402856901288,23.27112915366888,0.0,12.0,left,silver,1.0,28.0,1.0,right,2021_Oct_12_1615,habits_v_MRI,5.0,40.0,1.0,5.0,30.0,15.0,5.0,15.0,30.0,30.0,60.0,RR,59.7933584823933,
28.0,0.0,resp1,stim/left_resp_img.png,"[0.5, 0]",left,stim/silver_coin.png,gold,,,,,training,,,silver,val,,,,,0.0,0.0,0.0,0.0,0.0,0.0,0.0,0.0,,,,,,,,,0.0,training_resp,,30.26411203015596,24.24087127391249,0.0,,left,silver,0.0,28.0,1.0,right,2021_Oct_12_1615,habits_v_MRI,5.0,40.0,1.0,5.0,30.0,15.0,5.0,15.0,30.0,30.0,60.0,RR,59.7933584823933,
28.0,0.0,resp1,stim/left_resp_img.png,"[0.5, 0]",left,stim/silver_coin.png,gold,,,,,training,,,silver,val,,,,,0.0,0.0,0.0,0.0,0.0,0.0,0.0,0.0,,,,,,,,,0.0,training_resp,,32.06980115175247,26.046805844642225,0.0,,left,silver,0.0,28.0,1.0,right,2021_Oct_12_1615,habits_v_MRI,5.0,40.0,1.0,5.0,30.0,15.0,5.0,15.0,30.0,30.0,60.0,RR,59.7933584823933,
28.0,0.0,resp1,stim/left_resp_img.png,"[0.5, 0]",left,stim/silver_coin.png,gold,,,,,training,,,silver,val,,,,,0.0,0.0,0.0,0.0,0.0,0.0,0.0,0.0,,,,,,,,,0.0,training_resp,,33.406852376647294,27.383901642635465,0.0,,left,silver,0.0,28.0,1.0,right,2021_Oct_12_1615,habits_v_MRI,5.0,40.0,1.0,5.0,30.0,15.0,5.0,15.0,30.0,30.0,60.0,RR,59.7933584823933,
28.0,0.0,resp1,stim/left_resp_img.png,"[0.5, 0]",left,stim/silver_coin.png,gold,,,,,training,,,silver,val,,,,,0.0,0.0,0.0,0.0,0.0,0.0,0.0,0.0,,,,,,,,,0.0,training_resp,,33.97521910723299,27.952331715263423,0.0,,left,silver,0.0,28.0,1.0,right,2021_Oct_12_1615,habits_v_MRI,5.0,40.0,1.0,5.0,30.0,15.0,5.0,15.0,30.0,30.0,60.0,RR,59.7933584823933,
28.0,0.0,resp1,stim/left_resp_img.png,"[0.5, 0]",left,stim/silver_coin.png,gold,,,,,training,,,silver,val,,,,,0.0,0.0,0.0,0.0,0.0,0.0,0.0,0.0,,,,,,,,,0.0,training_resp,,34.12569943256676,28.10282318387181,0.0,,left,silver,0.0,28.0,1.0,right,2021_Oct_12_1615,habits_v_MRI,5.0,40.0,1.0,5.0,30.0,15.0,5.0,15.0,30.0,30.0,60.0,RR,59.7933584823933,
28.0,0.0,resp1,stim/left_resp_img.png,"[0.5, 0]",left,stim/silver_coin.png,gold,,,,,training,,,silver,val,,,,,0.0,0.0,0.0,0.0,0.0,0.0,0.0,0.0,,,,,,,,,0.0,training_resp,,34.59384496696293,28.57093646004796,0.0,,left,silver,0.0,28.0,1.0,right,2021_Oct_12_1615,habits_v_MRI,5.0,40.0,1.0,5.0,30.0,15.0,5.0,15.0,30.0,30.0,60.0,RR,59.7933584823933,
28.0,0.0,resp1,stim/left_resp_img.png,"[0.5, 0]",left,stim/silver_coin.png,gold,,,,,training,,,silver,val,,,,,0.0,0.0,0.0,0.0,0.0,0.0,0.0,0.0,,,,,,,,,0.0,training_resp,,35.346197912469506,29.32330025639385,0.0,,left,silver,0.0,28.0,1.0,right,2021_Oct_12_1615,habits_v_MRI,5.0,40.0,1.0,5.0,30.0,15.0,5.0,15.0,30.0,30.0,60.0,RR,59.7933584823933,
28.0,0.0,resp1,stim/left_resp_img.png,"[0.5, 0]",left,stim/silver_coin.png,gold,,,,,training,,,silver,val,,,,,0.0,0.0,0.0,0.0,0.0,0.0,0.0,0.0,,,,,,,,,0.0,training_resp,,35.61376674566418,29.59080281574279,0.0,,left,silver,0.0,28.0,1.0,right,2021_Oct_12_1615,habits_v_MRI,5.0,40.0,1.0,5.0,30.0,15.0,5.0,15.0,30.0,30.0,60.0,RR,59.7933584823933,
28.0,0.0,resp1,stim/left_resp_img.png,"[0.5, 0]",left,stim/silver_coin.png,gold,,,,,training,,,silver,val,,,,,0.0,0.0,0.0,0.0,0.0,0.0,0.0,0.0,,,,,,,,,0.0,ITI_start,23.333333333333336,35.715461218729615,29.691132513806224,,,,,,28.0,1.0,right,2021_Oct_12_1615,habits_v_MRI,5.0,40.0,1.0,5.0,30.0,15.0,5.0,15.0,30.0,30.0,60.0,RR,59.7933584823933,
28.0,1.0,resp2,stim/right_resp_img.png,"[-0.5, 0]",right,stim/gold_coin.png,gold,,,,,training,,,gold,deval,,,,,0.0,0.0,0.0,0.0,0.0,1.0,1.0,1.0,,,,,,,,,0.0,training_period_start,30.0,59.09203489590436,0.0,1.0,5.0,,,,28.0,1.0,right,2021_Oct_12_1615,habits_v_MRI,5.0,40.0,1.0,5.0,30.0,15.0,5.0,15.0,30.0,30.0,60.0,RR,59.7933584823933,
28.0,1.0,resp2,stim/right_resp_img.png,"[-0.5, 0]",right,stim/gold_coin.png,gold,,,,,training,,,gold,deval,,,,,0.0,0.0,0.0,0.0,0.0,1.0,1.0,1.0,,,,,,,,,0.0,training_resp,,60.47417148016393,1.402627264149487,1.0,,right,gold,0.0,28.0,1.0,right,2021_Oct_12_1615,habits_v_MRI,5.0,40.0,1.0,5.0,30.0,15.0,5.0,15.0,30.0,30.0,60.0,RR,59.7933584823933,
28.0,1.0,resp2,stim/right_resp_img.png,"[-0.5, 0]",right,stim/gold_coin.png,gold,,,,,training,,,gold,deval,,,,,0.0,0.0,0.0,0.0,0.0,1.0,1.0,1.0,,,,,,,,,0.0,training_resp,,60.674781611189246,1.6032881271094084,1.0,,right,gold,0.0,28.0,1.0,right,2021_Oct_12_1615,habits_v_MRI,5.0,40.0,1.0,5.0,30.0,15.0,5.0,15.0,30.0,30.0,60.0,RR,59.7933584823933,
28.0,1.0,resp2,stim/right_resp_img.png,"[-0.5, 0]",right,stim/gold_coin.png,gold,,,,,training,,,gold,deval,,,,,0.0,0.0,0.0,0.0,0.0,1.0,1.0,1.0,,,,,,,,,0.0,training_resp,,61.29334236960858,2.22183539532125,1.0,,right,gold,0.0,28.0,1.0,right,2021_Oct_12_1615,habits_v_MRI,5.0,40.0,1.0,5.0,30.0,15.0,5.0,15.0,30.0,30.0,60.0,RR,59.7933584823933,
28.0,1.0,resp2,stim/right_resp_img.png,"[-0.5, 0]",right,stim/gold_coin.png,gold,,,,,training,,,gold,deval,,,,,0.0,0.0,0.0,0.0,0.0,1.0,1.0,1.0,,,,,,,,,0.0,training_resp,,61.54413567762822,2.4726313427090645,1.0,,right,gold,0.0,28.0,1.0,right,2021_Oct_12_1615,habits_v_MRI,5.0,40.0,1.0,5.0,30.0,15.0,5.0,15.0,30.0,30.0,60.0,RR,59.7933584823933,
28.0,1.0,resp2,stim/right_resp_img.png,"[-0.5, 0]",right,stim/gold_coin.png,gold,,,,,training,,,gold,deval,,,,,0.0,0.0,0.0,0.0,0.0,1.0,1.0,1.0,,,,,,,,,0.0,training_resp,,62.36337899882346,3.29182246606797,1.0,17.0,right,gold,1.0,28.0,1.0,right,2021_Oct_12_1615,habits_v_MRI,5.0,40.0,1.0,5.0,30.0,15.0,5.0,15.0,30.0,30.0,60.0,RR,59.7933584823933,
28.0,1.0,resp2,stim/right_resp_img.png,"[-0.5, 0]",right,stim/gold_coin.png,gold,,,,,training,,,gold,deval,,,,,0.0,0.0,0.0,0.0,0.0,1.0,1.0,1.0,,,,,,,,,0.0,training_resp,,63.43348688818514,4.361808657646179,1.0,,right,gold,0.0,28.0,1.0,right,2021_Oct_12_1615,habits_v_MRI,5.0,40.0,1.0,5.0,30.0,15.0,5.0,15.0,30.0,30.0,60.0,RR,59.7933584823933,
28.0,1.0,resp2,stim/right_resp_img.png,"[-0.5, 0]",right,stim/gold_coin.png,gold,,,,,training,,,gold,deval,,,,,0.0,0.0,0.0,0.0,0.0,1.0,1.0,1.0,,,,,,,,,0.0,training_resp,,63.80123674310744,4.729688127525151,1.0,,right,gold,0.0,28.0,1.0,right,2021_Oct_12_1615,habits_v_MRI,5.0,40.0,1.0,5.0,30.0,15.0,5.0,15.0,30.0,30.0,60.0,RR,59.7933584823933,
28.0,1.0,resp2,stim/right_resp_img.png,"[-0.5, 0]",right,stim/gold_coin.png,gold,,,,,training,,,gold,deval,,,,,0.0,0.0,0.0,0.0,0.0,1.0,1.0,1.0,,,,,,,,,0.0,training_resp,,64.77082226984203,5.6992897829040885,1.0,,right,gold,0.0,28.0,1.0,right,2021_Oct_12_1615,habits_v_MRI,5.0,40.0,1.0,5.0,30.0,15.0,5.0,15.0,30.0,30.0,60.0,RR,59.7933584823933,
28.0,1.0,resp2,stim/right_resp_img.png,"[-0.5, 0]",right,stim/gold_coin.png,gold,,,,,training,,,gold,deval,,,,,0.0,0.0,0.0,0.0,0.0,1.0,1.0,1.0,,,,,,,,,0.0,training_resp,,66.2420741757378,7.170534358359873,1.0,,right,gold,0.0,28.0,1.0,right,2021_Oct_12_1615,habits_v_MRI,5.0,40.0,1.0,5.0,30.0,15.0,5.0,15.0,30.0,30.0,60.0,RR,59.7933584823933,
28.0,1.0,resp2,stim/right_resp_img.png,"[-0.5, 0]",right,stim/gold_coin.png,gold,,,,,training,,,gold,deval,,,,,0.0,0.0,0.0,0.0,0.0,1.0,1.0,1.0,,,,,,,,,0.0,training_resp,,83.32860070746392,24.256958546116948,1.0,,right,gold,0.0,28.0,1.0,right,2021_Oct_12_1615,habits_v_MRI,5.0,40.0,1.0,5.0,30.0,15.0,5.0,15.0,30.0,30.0,60.0,RR,59.7933584823933,
28.0,1.0,resp2,stim/right_resp_img.png,"[-0.5, 0]",right,stim/gold_coin.png,gold,,,,,training,,,gold,deval,,,,,0.0,0.0,0.0,0.0,0.0,1.0,1.0,1.0,,,,,,,,,0.0,training_resp,,86.17066544108093,27.09912122413516,1.0,,right,gold,0.0,28.0,1.0,right,2021_Oct_12_1615,habits_v_MRI,5.0,40.0,1.0,5.0,30.0,15.0,5.0,15.0,30.0,30.0,60.0,RR,59.7933584823933,
28.0,1.0,resp2,stim/right_resp_img.png,"[-0.5, 0]",right,stim/gold_coin.png,gold,,,,,training,,,gold,deval,,,,,0.0,0.0,0.0,0.0,0.0,1.0,1.0,1.0,,,,,,,,,0.0,ITI_start,20.0,88.74637743830681,29.67369512841105,,,,,,28.0,1.0,right,2021_Oct_12_1615,habits_v_MRI,5.0,40.0,1.0,5.0,30.0,15.0,5.0,15.0,30.0,30.0,60.0,RR,59.7933584823933,
28.0,0.0,resp1,stim/left_resp_img.png,"[0.5, 0]",left,stim/silver_coin.png,gold,,,,,training,,,silver,val,,,,,0.0,0.0,0.0,0.0,1.0,0.0,2.0,0.0,,,,,,,,,0.0,training_period_start,52.5,108.77901619579644,0.0,2.0,9.0,,,,28.0,1.0,right,2021_Oct_12_1615,habits_v_MRI,5.0,40.0,1.0,5.0,30.0,15.0,5.0,15.0,30.0,30.0,60.0,RR,59.7933584823933,
28.0,0.0,resp1,stim/left_resp_img.png,"[0.5, 0]",left,stim/silver_coin.png,gold,,,,,training,,,silver,val,,,,,0.0,0.0,0.0,0.0,1.0,0.0,2.0,0.0,,,,,,,,,0.0,training_resp,,110.36252300906926,1.6031582187861204,2.0,,left,silver,0.0,28.0,1.0,right,2021_Oct_12_1615,habits_v_MRI,5.0,40.0,1.0,5.0,30.0,15.0,5.0,15.0,30.0,30.0,60.0,RR,59.7933584823933,
28.0,0.0,resp1,stim/left_resp_img.png,"[0.5, 0]",left,stim/silver_coin.png,gold,,,,,training,,,silver,val,,,,,0.0,0.0,0.0,0.0,1.0,0.0,2.0,0.0,,,,,,,,,0.0,training_resp,,110.61321309395134,1.8539175102487209,2.0,,left,silver,0.0,28.0,1.0,right,2021_Oct_12_1615,habits_v_MRI,5.0,40.0,1.0,5.0,30.0,15.0,5.0,15.0,30.0,30.0,60.0,RR,59.7933584823933,
28.0,0.0,resp1,stim/left_resp_img.png,"[0.5, 0]",left,stim/silver_coin.png,gold,,,,,training,,,silver,val,,,,,0.0,0.0,0.0,0.0,1.0,0.0,2.0,0.0,,,,,,,,,0.0,training_resp,,111.21514436416328,2.45586754847318,2.0,,left,silver,0.0,28.0,1.0,right,2021_Oct_12_1615,habits_v_MRI,5.0,40.0,1.0,5.0,30.0,15.0,5.0,15.0,30.0,30.0,60.0,RR,59.7933584823933,
28.0,0.0,resp1,stim/left_resp_img.png,"[0.5, 0]",left,stim/silver_coin.png,gold,,,,,training,,,silver,val,,,,,0.0,0.0,0.0,0.0,1.0,0.0,2.0,0.0,,,,,,,,,0.0,training_resp,,111.39892911817878,2.639667551033199,2.0,,left,silver,0.0,28.0,1.0,right,2021_Oct_12_1615,habits_v_MRI,5.0,40.0,1.0,5.0,30.0,15.0,5.0,15.0,30.0,30.0,60.0,RR,59.7933584823933,
28.0,0.0,resp1,stim/left_resp_img.png,"[0.5, 0]",left,stim/silver_coin.png,gold,,,,,training,,,silver,val,,,,,0.0,0.0,0.0,0.0,1.0,0.0,2.0,0.0,,,,,,,,,0.0,training_resp,,112.15116652473807,3.3919413201510906,2.0,,left,silver,0.0,28.0,1.0,right,2021_Oct_12_1615,habits_v_MRI,5.0,40.0,1.0,5.0,30.0,15.0,5.0,15.0,30.0,30.0,60.0,RR,59.7933584823933,
28.0,0.0,resp1,stim/left_resp_img.png,"[0.5, 0]",left,stim/silver_coin.png,gold,,,,,training,,,silver,val,,,,,0.0,0.0,0.0,0.0,1.0,0.0,2.0,0.0,,,,,,,,,0.0,training_resp,,112.46890328638256,3.709683066233993,2.0,,left,silver,0.0,28.0,1.0,right,2021_Oct_12_1615,habits_v_MRI,5.0,40.0,1.0,5.0,30.0,15.0,5.0,15.0,30.0,30.0,60.0,RR,59.7933584823933,
28.0,0.0,resp1,stim/left_resp_img.png,"[0.5, 0]",left,stim/silver_coin.png,gold,,,,,training,,,silver,val,,,,,0.0,0.0,0.0,0.0,1.0,0.0,2.0,0.0,,,,,,,,,0.0,training_resp,,113.4051547665149,4.645901116542518,2.0,,left,silver,0.0,28.0,1.0,right,2021_Oct_12_1615,habits_v_MRI,5.0,40.0,1.0,5.0,30.0,15.0,5.0,15.0,30.0,30.0,60.0,RR,59.7933584823933,
28.0,0.0,resp1,stim/left_resp_img.png,"[0.5, 0]",left,stim/silver_coin.png,gold,,,,,training,,,silver,val,,,,,0.0,0.0,0.0,0.0,1.0,0.0,2.0,0.0,,,,,,,,,0.0,training_resp,,113.72278097365052,4.963567791506648,2.0,,left,silver,0.0,28.0,1.0,right,2021_Oct_12_1615,habits_v_MRI,5.0,40.0,1.0,5.0,30.0,15.0,5.0,15.0,30.0,30.0,60.0,RR,59.7933584823933,
28.0,0.0,resp1,stim/left_resp_img.png,"[0.5, 0]",left,stim/silver_coin.png,gold,,,,,training,,,silver,val,,,,,0.0,0.0,0.0,0.0,1.0,0.0,2.0,0.0,,,,,,,,,0.0,training_resp,,114.5252692969516,5.766043212264776,2.0,16.0,left,silver,1.0,28.0,1.0,right,2021_Oct_12_1615,habits_v_MRI,5.0,40.0,1.0,5.0,30.0,15.0,5.0,15.0,30.0,30.0,60.0,RR,59.7933584823933,
28.0,0.0,resp1,stim/left_resp_img.png,"[0.5, 0]",left,stim/silver_coin.png,gold,,,,,training,,,silver,val,,,,,0.0,0.0,0.0,0.0,1.0,0.0,2.0,0.0,,,,,,,,,0.0,ITI_start,28.333333333333336,160.93738546874374,52.17690897639841,,,,,,28.0,1.0,right,2021_Oct_12_1615,habits_v_MRI,5.0,40.0,1.0,5.0,30.0,15.0,5.0,15.0,30.0,30.0,60.0,RR,59.7933584823933,
28.0,1.0,resp2,stim/right_resp_img.png,"[-0.5, 0]",right,stim/gold_coin.png,gold,,,,,training,,,gold,deval,,,,,0.0,0.0,0.0,0.0,1.0,1.0,3.0,1.0,,,,,,,,,0.0,training_period_start,60.0,189.31313072051853,0.0,3.0,14.0,,,,28.0,1.0,right,2021_Oct_12_1615,habits_v_MRI,5.0,40.0,1.0,5.0,30.0,15.0,5.0,15.0,30.0,30.0,60.0,RR,59.7933584823933,
28.0,1.0,resp2,stim/right_resp_img.png,"[-0.5, 0]",right,stim/gold_coin.png,gold,,,,,training,,,gold,deval,,,,,0.0,0.0,0.0,0.0,1.0,1.0,3.0,1.0,,,,,,,,,0.0,training_resp,,190.5952032897621,1.302232758142054,3.0,,right,gold,0.0,28.0,1.0,right,2021_Oct_12_1615,habits_v_MRI,5.0,40.0,1.0,5.0,30.0,15.0,5.0,15.0,30.0,30.0,60.0,RR,59.7933584823933,
28.0,1.0,resp2,stim/right_resp_img.png,"[-0.5, 0]",right,stim/gold_coin.png,gold,,,,,training,,,gold,deval,,,,,0.0,0.0,0.0,0.0,1.0,1.0,3.0,1.0,,,,,,,,,0.0,training_resp,,190.8122716518119,1.5194981824606657,3.0,,right,gold,0.0,28.0,1.0,right,2021_Oct_12_1615,habits_v_MRI,5.0,40.0,1.0,5.0,30.0,15.0,5.0,15.0,30.0,30.0,60.0,RR,59.7933584823933,
28.0,1.0,resp2,stim/right_resp_img.png,"[-0.5, 0]",right,stim/gold_coin.png,gold,,,,,training,,,gold,deval,,,,,0.0,0.0,0.0,0.0,1.0,1.0,3.0,1.0,,,,,,,,,0.0,training_resp,,191.36392238736155,2.071217831224203,3.0,,right,gold,0.0,28.0,1.0,right,2021_Oct_12_1615,habits_v_MRI,5.0,40.0,1.0,5.0,30.0,15.0,5.0,15.0,30.0,30.0,60.0,RR,59.7933584823933,
28.0,1.0,resp2,stim/right_resp_img.png,"[-0.5, 0]",right,stim/gold_coin.png,gold,,,,,training,,,gold,deval,,,,,0.0,0.0,0.0,0.0,1.0,1.0,3.0,1.0,,,,,,,,,0.0,training_resp,,191.56442812178284,2.271736761555076,3.0,,right,gold,0.0,28.0,1.0,right,2021_Oct_12_1615,habits_v_MRI,5.0,40.0,1.0,5.0,30.0,15.0,5.0,15.0,30.0,30.0,60.0,RR,59.7933584823933,
28.0,1.0,resp2,stim/right_resp_img.png,"[-0.5, 0]",right,stim/gold_coin.png,gold,,,,,training,,,gold,deval,,,,,0.0,0.0,0.0,0.0,1.0,1.0,3.0,1.0,,,,,,,,,0.0,training_resp,,192.23326003178957,2.9405598742887378,3.0,,right,gold,0.0,28.0,1.0,right,2021_Oct_12_1615,habits_v_MRI,5.0,40.0,1.0,5.0,30.0,15.0,5.0,15.0,30.0,30.0,60.0,RR,59.7933584823933,
28.0,1.0,resp2,stim/right_resp_img.png,"[-0.5, 0]",right,stim/gold_coin.png,gold,,,,,training,,,gold,deval,,,,,0.0,0.0,0.0,0.0,1.0,1.0,3.0,1.0,,,,,,,,,0.0,training_resp,,192.51740703452376,3.224713621661067,3.0,,right,gold,0.0,28.0,1.0,right,2021_Oct_12_1615,habits_v_MRI,5.0,40.0,1.0,5.0,30.0,15.0,5.0,15.0,30.0,30.0,60.0,RR,59.7933584823933,
28.0,1.0,resp2,stim/right_resp_img.png,"[-0.5, 0]",right,stim/gold_coin.png,gold,,,,,training,,,gold,deval,,,,,0.0,0.0,0.0,0.0,1.0,1.0,3.0,1.0,,,,,,,,,0.0,training_resp,,193.1862729601562,3.893524124287069,3.0,,right,gold,0.0,28.0,1.0,right,2021_Oct_12_1615,habits_v_MRI,5.0,40.0,1.0,5.0,30.0,15.0,5.0,15.0,30.0,30.0,60.0,RR,59.7933584823933,
28.0,1.0,resp2,stim/right_resp_img.png,"[-0.5, 0]",right,stim/gold_coin.png,gold,,,,,training,,,gold,deval,,,,,0.0,0.0,0.0,0.0,1.0,1.0,3.0,1.0,,,,,,,,,0.0,training_resp,,193.50386749673635,4.211177603341639,3.0,,right,gold,0.0,28.0,1.0,right,2021_Oct_12_1615,habits_v_MRI,5.0,40.0,1.0,5.0,30.0,15.0,5.0,15.0,30.0,30.0,60.0,RR,59.7933584823933,
28.0,1.0,resp2,stim/right_resp_img.png,"[-0.5, 0]",right,stim/gold_coin.png,gold,,,,,training,,,gold,deval,,,,,0.0,0.0,0.0,0.0,1.0,1.0,3.0,1.0,,,,,,,,,0.0,training_resp,,194.15590482018888,4.863150412216783,3.0,,right,gold,0.0,28.0,1.0,right,2021_Oct_12_1615,habits_v_MRI,5.0,40.0,1.0,5.0,30.0,15.0,5.0,15.0,30.0,30.0,60.0,RR,59.7933584823933,
28.0,1.0,resp2,stim/right_resp_img.png,"[-0.5, 0]",right,stim/gold_coin.png,gold,,,,,training,,,gold,deval,,,,,0.0,0.0,0.0,0.0,1.0,1.0,3.0,1.0,,,,,,,,,0.0,training_resp,,194.87479820940644,5.582009783945978,3.0,,right,gold,0.0,28.0,1.0,right,2021_Oct_12_1615,habits_v_MRI,5.0,40.0,1.0,5.0,30.0,15.0,5.0,15.0,30.0,30.0,60.0,RR,59.7933584823933,
28.0,1.0,resp2,stim/right_resp_img.png,"[-0.5, 0]",right,stim/gold_coin.png,gold,,,,,training,,,gold,deval,,,,,0.0,0.0,0.0,0.0,1.0,1.0,3.0,1.0,,,,,,,,,0.0,training_resp,,195.17579111643136,5.88294228259474,3.0,,right,gold,0.0,28.0,1.0,right,2021_Oct_12_1615,habits_v_MRI,5.0,40.0,1.0,5.0,30.0,15.0,5.0,15.0,30.0,30.0,60.0,RR,59.7933584823933,
28.0,1.0,resp2,stim/right_resp_img.png,"[-0.5, 0]",right,stim/gold_coin.png,gold,,,,,training,,,gold,deval,,,,,0.0,0.0,0.0,0.0,1.0,1.0,3.0,1.0,,,,,,,,,0.0,training_resp,,195.49366892967373,6.200920093804598,3.0,,right,gold,0.0,28.0,1.0,right,2021_Oct_12_1615,habits_v_MRI,5.0,40.0,1.0,5.0,30.0,15.0,5.0,15.0,30.0,30.0,60.0,RR,59.7933584823933,
28.0,1.0,resp2,stim/right_resp_img.png,"[-0.5, 0]",right,stim/gold_coin.png,gold,,,,,training,,,gold,deval,,,,,0.0,0.0,0.0,0.0,1.0,1.0,3.0,1.0,,,,,,,,,0.0,training_resp,,196.66365902125835,7.370945667847991,3.0,,right,gold,0.0,28.0,1.0,right,2021_Oct_12_1615,habits_v_MRI,5.0,40.0,1.0,5.0,30.0,15.0,5.0,15.0,30.0,30.0,60.0,RR,59.7933584823933,
28.0,1.0,resp2,stim/right_resp_img.png,"[-0.5, 0]",right,stim/gold_coin.png,gold,,,,,training,,,gold,deval,,,,,0.0,0.0,0.0,0.0,1.0,1.0,3.0,1.0,,,,,,,,,0.0,training_resp,,196.9480033796281,7.655204690992832,3.0,20.0,right,gold,1.0,28.0,1.0,right,2021_Oct_12_1615,habits_v_MRI,5.0,40.0,1.0,5.0,30.0,15.0,5.0,15.0,30.0,30.0,60.0,RR,59.7933584823933,
28.0,1.0,resp2,stim/right_resp_img.png,"[-0.5, 0]",right,stim/gold_coin.png,gold,,,,,training,,,gold,deval,,,,,0.0,0.0,0.0,0.0,1.0,1.0,3.0,1.0,,,,,,,,,0.0,ITI_start,26.666666666666668,248.96065613627437,59.66665483918041,,,,,,28.0,1.0,right,2021_Oct_12_1615,habits_v_MRI,5.0,40.0,1.0,5.0,30.0,15.0,5.0,15.0,30.0,30.0,60.0,RR,59.7933584823933,
28.0,0.0,resp1,stim/left_resp_img.png,"[0.5, 0]",left,stim/silver_coin.png,gold,,,,,training,,,silver,val,,,,,0.0,0.0,0.0,0.0,2.0,0.0,4.0,0.0,,,,,,,,,0.0,training_period_start,37.5,275.66395549476147,0.0,4.0,16.0,,,,28.0,1.0,right,2021_Oct_12_1615,habits_v_MRI,5.0,40.0,1.0,5.0,30.0,15.0,5.0,15.0,30.0,30.0,60.0,RR,59.7933584823933,
28.0,0.0,resp1,stim/left_resp_img.png,"[0.5, 0]",left,stim/silver_coin.png,gold,,,,,training,,,silver,val,,,,,0.0,0.0,0.0,0.0,2.0,0.0,4.0,0.0,,,,,,,,,0.0,training_resp,,276.9124620575458,1.2686946103349328,4.0,,left,silver,0.0,28.0,1.0,right,2021_Oct_12_1615,habits_v_MRI,5.0,40.0,1.0,5.0,30.0,15.0,5.0,15.0,30.0,30.0,60.0,RR,59.7933584823933,
28.0,0.0,resp1,stim/left_resp_img.png,"[0.5, 0]",left,stim/silver_coin.png,gold,,,,,training,,,silver,val,,,,,0.0,0.0,0.0,0.0,2.0,0.0,4.0,0.0,,,,,,,,,0.0,training_resp,,277.0795516362414,1.435859846882522,4.0,,left,silver,0.0,28.0,1.0,right,2021_Oct_12_1615,habits_v_MRI,5.0,40.0,1.0,5.0,30.0,15.0,5.0,15.0,30.0,30.0,60.0,RR,59.7933584823933,
28.0,0.0,resp1,stim/left_resp_img.png,"[0.5, 0]",left,stim/silver_coin.png,gold,,,,,training,,,silver,val,,,,,0.0,0.0,0.0,0.0,2.0,0.0,4.0,0.0,,,,,,,,,0.0,training_resp,,277.8485548906028,2.204846092499793,4.0,,left,silver,0.0,28.0,1.0,right,2021_Oct_12_1615,habits_v_MRI,5.0,40.0,1.0,5.0,30.0,15.0,5.0,15.0,30.0,30.0,60.0,RR,59.7933584823933,
28.0,0.0,resp1,stim/left_resp_img.png,"[0.5, 0]",left,stim/silver_coin.png,gold,,,,,training,,,silver,val,,,,,0.0,0.0,0.0,0.0,2.0,0.0,4.0,0.0,,,,,,,,,0.0,training_resp,,278.0492131141946,2.4055046094581485,4.0,,left,silver,0.0,28.0,1.0,right,2021_Oct_12_1615,habits_v_MRI,5.0,40.0,1.0,5.0,30.0,15.0,5.0,15.0,30.0,30.0,60.0,RR,59.7933584823933,
28.0,0.0,resp1,stim/left_resp_img.png,"[0.5, 0]",left,stim/silver_coin.png,gold,,,,,training,,,silver,val,,,,,0.0,0.0,0.0,0.0,2.0,0.0,4.0,0.0,,,,,,,,,0.0,training_resp,,278.86840365082026,3.2246813643723726,4.0,,left,silver,0.0,28.0,1.0,right,2021_Oct_12_1615,habits_v_MRI,5.0,40.0,1.0,5.0,30.0,15.0,5.0,15.0,30.0,30.0,60.0,RR,59.7933584823933,
28.0,0.0,resp1,stim/left_resp_img.png,"[0.5, 0]",left,stim/silver_coin.png,gold,,,,,training,,,silver,val,,,,,0.0,0.0,0.0,0.0,2.0,0.0,4.0,0.0,,,,,,,,,0.0,training_resp,,279.1694467039779,3.5257417177781463,4.0,,left,silver,0.0,28.0,1.0,right,2021_Oct_12_1615,habits_v_MRI,5.0,40.0,1.0,5.0,30.0,15.0,5.0,15.0,30.0,30.0,60.0,RR,59.7933584823933,
28.0,0.0,resp1,stim/left_resp_img.png,"[0.5, 0]",left,stim/silver_coin.png,gold,,,,,training,,,silver,val,,,,,0.0,0.0,0.0,0.0,2.0,0.0,4.0,0.0,,,,,,,,,0.0,training_resp,,279.4536013305187,3.809860276058316,4.0,,left,silver,0.0,28.0,1.0,right,2021_Oct_12_1615,habits_v_MRI,5.0,40.0,1.0,5.0,30.0,15.0,5.0,15.0,30.0,30.0,60.0,RR,59.7933584823933,
28.0,0.0,resp1,stim/left_resp_img.png,"[0.5, 0]",left,stim/silver_coin.png,gold,,,,,training,,,silver,val,,,,,0.0,0.0,0.0,0.0,2.0,0.0,4.0,0.0,,,,,,,,,0.0,training_resp,,280.1391586195677,4.49541873857379,4.0,,left,silver,0.0,28.0,1.0,right,2021_Oct_12_1615,habits_v_MRI,5.0,40.0,1.0,5.0,30.0,15.0,5.0,15.0,30.0,30.0,60.0,RR,59.7933584823933,
28.0,0.0,resp1,stim/left_resp_img.png,"[0.5, 0]",left,stim/silver_coin.png,gold,,,,,training,,,silver,val,,,,,0.0,0.0,0.0,0.0,2.0,0.0,4.0,0.0,,,,,,,,,0.0,training_resp,,280.407084335573,4.763129210099578,4.0,,left,silver,0.0,28.0,1.0,right,2021_Oct_12_1615,habits_v_MRI,5.0,40.0,1.0,5.0,30.0,15.0,5.0,15.0,30.0,30.0,60.0,RR,59.7933584823933,
28.0,0.0,resp1,stim/left_resp_img.png,"[0.5, 0]",left,stim/silver_coin.png,gold,,,,,training,,,silver,val,,,,,0.0,0.0,0.0,0.0,2.0,0.0,4.0,0.0,,,,,,,,,0.0,training_resp,,281.19284991919994,5.548907989636064,4.0,,left,silver,0.0,28.0,1.0,right,2021_Oct_12_1615,habits_v_MRI,5.0,40.0,1.0,5.0,30.0,15.0,5.0,15.0,30.0,30.0,60.0,RR,59.7933584823933,
28.0,0.0,resp1,stim/left_resp_img.png,"[0.5, 0]",left,stim/silver_coin.png,gold,,,,,training,,,silver,val,,,,,0.0,0.0,0.0,0.0,2.0,0.0,4.0,0.0,,,,,,,,,0.0,training_resp,,281.4268876425922,5.782958908937872,4.0,,left,silver,0.0,28.0,1.0,right,2021_Oct_12_1615,habits_v_MRI,5.0,40.0,1.0,5.0,30.0,15.0,5.0,15.0,30.0,30.0,60.0,RR,59.7933584823933,
28.0,0.0,resp1,stim/left_resp_img.png,"[0.5, 0]",left,stim/silver_coin.png,gold,,,,,training,,,silver,val,,,,,0.0,0.0,0.0,0.0,2.0,0.0,4.0,0.0,,,,,,,,,0.0,training_resp,,282.3130251513794,6.669083222746849,4.0,,left,silver,0.0,28.0,1.0,right,2021_Oct_12_1615,habits_v_MRI,5.0,40.0,1.0,5.0,30.0,15.0,5.0,15.0,30.0,30.0,60.0,RR,59.7933584823933,
28.0,0.0,resp1,stim/left_resp_img.png,"[0.5, 0]",left,stim/silver_coin.png,gold,,,,,training,,,silver,val,,,,,0.0,0.0,0.0,0.0,2.0,0.0,4.0,0.0,,,,,,,,,0.0,training_resp,,283.28268838953227,7.638733556494117,4.0,,left,silver,0.0,28.0,1.0,right,2021_Oct_12_1615,habits_v_MRI,5.0,40.0,1.0,5.0,30.0,15.0,5.0,15.0,30.0,30.0,60.0,RR,59.7933584823933,
28.0,0.0,resp1,stim/left_resp_img.png,"[0.5, 0]",left,stim/silver_coin.png,gold,,,,,training,,,silver,val,,,,,0.0,0.0,0.0,0.0,2.0,0.0,4.0,0.0,,,,,,,,,0.0,training_resp,,283.9849220858887,8.340888076461852,4.0,,left,silver,0.0,28.0,1.0,right,2021_Oct_12_1615,habits_v_MRI,5.0,40.0,1.0,5.0,30.0,15.0,5.0,15.0,30.0,30.0,60.0,RR,59.7933584823933,
28.0,0.0,resp1,stim/left_resp_img.png,"[0.5, 0]",left,stim/silver_coin.png,gold,,,,,training,,,silver,val,,,,,0.0,0.0,0.0,0.0,2.0,0.0,4.0,0.0,,,,,,,,,0.0,training_resp,,284.7039154721424,9.059785570949316,4.0,,left,silver,0.0,28.0,1.0,right,2021_Oct_12_1615,habits_v_MRI,5.0,40.0,1.0,5.0,30.0,15.0,5.0,15.0,30.0,30.0,60.0,RR,59.7933584823933,
28.0,0.0,resp1,stim/left_resp_img.png,"[0.5, 0]",left,stim/silver_coin.png,gold,,,,,training,,,silver,val,,,,,0.0,0.0,0.0,0.0,2.0,0.0,4.0,0.0,,,,,,,,,0.0,training_resp,,285.0552531359717,9.41126545984298,4.0,11.0,left,silver,1.0,28.0,1.0,right,2021_Oct_12_1615,habits_v_MRI,5.0,40.0,1.0,5.0,30.0,15.0,5.0,15.0,30.0,30.0,60.0,RR,59.7933584823933,
28.0,0.0,resp1,stim/left_resp_img.png,"[0.5, 0]",left,stim/silver_coin.png,gold,,,,,training,,,silver,val,,,,,0.0,0.0,0.0,0.0,2.0,0.0,4.0,0.0,,,,,,,,,0.0,ITI_start,18.33333333333333,312.8256677910685,37.18045551329851,,,,,,28.0,1.0,right,2021_Oct_12_1615,habits_v_MRI,5.0,40.0,1.0,5.0,30.0,15.0,5.0,15.0,30.0,30.0,60.0,RR,59.7933584823933,
28.0,1.0,resp2,stim/right_resp_img.png,"[-0.5, 0]",right,stim/gold_coin.png,gold,,,,,training,,,gold,deval,,,,,0.0,0.0,0.0,0.0,2.0,1.0,5.0,1.0,,,,,,,,,0.0,training_period_start,45.0,331.18655887711793,0.0,5.0,20.0,,,,28.0,1.0,right,2021_Oct_12_1615,habits_v_MRI,5.0,40.0,1.0,5.0,30.0,15.0,5.0,15.0,30.0,30.0,60.0,RR,59.7933584823933,
28.0,1.0,resp2,stim/right_resp_img.png,"[-0.5, 0]",right,stim/gold_coin.png,gold,,,,,training,,,gold,deval,,,,,0.0,0.0,0.0,0.0,2.0,1.0,5.0,1.0,,,,,,,,,0.0,training_resp,,332.5360525995493,1.369390869513154,5.0,,right,gold,0.0,28.0,1.0,right,2021_Oct_12_1615,habits_v_MRI,5.0,40.0,1.0,5.0,30.0,15.0,5.0,15.0,30.0,30.0,60.0,RR,59.7933584823933,
28.0,1.0,resp2,stim/right_resp_img.png,"[-0.5, 0]",right,stim/gold_coin.png,gold,,,,,training,,,gold,deval,,,,,0.0,0.0,0.0,0.0,2.0,1.0,5.0,1.0,,,,,,,,,0.0,training_resp,,332.7029653498903,1.5363786909729242,5.0,,right,gold,0.0,28.0,1.0,right,2021_Oct_12_1615,habits_v_MRI,5.0,40.0,1.0,5.0,30.0,15.0,5.0,15.0,30.0,30.0,60.0,RR,59.7933584823933,
28.0,1.0,resp2,stim/right_resp_img.png,"[-0.5, 0]",right,stim/gold_coin.png,gold,,,,,training,,,gold,deval,,,,,0.0,0.0,0.0,0.0,2.0,1.0,5.0,1.0,,,,,,,,,0.0,training_resp,,333.4217971563339,2.25525067280978,5.0,,right,gold,0.0,28.0,1.0,right,2021_Oct_12_1615,habits_v_MRI,5.0,40.0,1.0,5.0,30.0,15.0,5.0,15.0,30.0,30.0,60.0,RR,59.7933584823933,
28.0,1.0,resp2,stim/right_resp_img.png,"[-0.5, 0]",right,stim/gold_coin.png,gold,,,,,training,,,gold,deval,,,,,0.0,0.0,0.0,0.0,2.0,1.0,5.0,1.0,,,,,,,,,0.0,training_resp,,334.22417140658945,3.057641638442874,5.0,,right,gold,0.0,28.0,1.0,right,2021_Oct_12_1615,habits_v_MRI,5.0,40.0,1.0,5.0,30.0,15.0,5.0,15.0,30.0,30.0,60.0,RR,59.7933584823933,
28.0,1.0,resp2,stim/right_resp_img.png,"[-0.5, 0]",right,stim/gold_coin.png,gold,,,,,training,,,gold,deval,,,,,0.0,0.0,0.0,0.0,2.0,1.0,5.0,1.0,,,,,,,,,0.0,training_resp,,334.5084307240322,3.3419170835986733,5.0,,right,gold,0.0,28.0,1.0,right,2021_Oct_12_1615,habits_v_MRI,5.0,40.0,1.0,5.0,30.0,15.0,5.0,15.0,30.0,30.0,60.0,RR,59.7933584823933,
28.0,1.0,resp2,stim/right_resp_img.png,"[-0.5, 0]",right,stim/gold_coin.png,gold,,,,,training,,,gold,deval,,,,,0.0,0.0,0.0,0.0,2.0,1.0,5.0,1.0,,,,,,,,,0.0,training_resp,,334.7424769513309,3.575965364463628,5.0,,right,gold,0.0,28.0,1.0,right,2021_Oct_12_1615,habits_v_MRI,5.0,40.0,1.0,5.0,30.0,15.0,5.0,15.0,30.0,30.0,60.0,RR,59.7933584823933,
28.0,1.0,resp2,stim/right_resp_img.png,"[-0.5, 0]",right,stim/gold_coin.png,gold,,,,,training,,,gold,deval,,,,,0.0,0.0,0.0,0.0,2.0,1.0,5.0,1.0,,,,,,,,,0.0,training_resp,,335.7121489867568,4.545617751777172,5.0,,right,gold,0.0,28.0,1.0,right,2021_Oct_12_1615,habits_v_MRI,5.0,40.0,1.0,5.0,30.0,15.0,5.0,15.0,30.0,30.0,60.0,RR,59.7933584823933,
28.0,1.0,resp2,stim/right_resp_img.png,"[-0.5, 0]",right,stim/gold_coin.png,gold,,,,,training,,,gold,deval,,,,,0.0,0.0,0.0,0.0,2.0,1.0,5.0,1.0,,,,,,,,,0.0,training_resp,,336.0300200553611,4.863331053406,5.0,,right,gold,0.0,28.0,1.0,right,2021_Oct_12_1615,habits_v_MRI,5.0,40.0,1.0,5.0,30.0,15.0,5.0,15.0,30.0,30.0,60.0,RR,59.7933584823933,
28.0,1.0,resp2,stim/right_resp_img.png,"[-0.5, 0]",right,stim/gold_coin.png,gold,,,,,training,,,gold,deval,,,,,0.0,0.0,0.0,0.0,2.0,1.0,5.0,1.0,,,,,,,,,0.0,training_resp,,336.7989359218627,5.632326389662921,5.0,,right,gold,0.0,28.0,1.0,right,2021_Oct_12_1615,habits_v_MRI,5.0,40.0,1.0,5.0,30.0,15.0,5.0,15.0,30.0,30.0,60.0,RR,59.7933584823933,
28.0,1.0,resp2,stim/right_resp_img.png,"[-0.5, 0]",right,stim/gold_coin.png,gold,,,,,training,,,gold,deval,,,,,0.0,0.0,0.0,0.0,2.0,1.0,5.0,1.0,,,,,,,,,0.0,training_resp,,337.63493746705353,6.468295384198427,5.0,,right,gold,0.0,28.0,1.0,right,2021_Oct_12_1615,habits_v_MRI,5.0,40.0,1.0,5.0,30.0,15.0,5.0,15.0,30.0,30.0,60.0,RR,59.7933584823933,
28.0,1.0,resp2,stim/right_resp_img.png,"[-0.5, 0]",right,stim/gold_coin.png,gold,,,,,training,,,gold,deval,,,,,0.0,0.0,0.0,0.0,2.0,1.0,5.0,1.0,,,,,,,,,0.0,training_resp,,337.81896063126624,6.652380130253732,5.0,,right,gold,0.0,28.0,1.0,right,2021_Oct_12_1615,habits_v_MRI,5.0,40.0,1.0,5.0,30.0,15.0,5.0,15.0,30.0,30.0,60.0,RR,59.7933584823933,
28.0,1.0,resp2,stim/right_resp_img.png,"[-0.5, 0]",right,stim/gold_coin.png,gold,,,,,training,,,gold,deval,,,,,0.0,0.0,0.0,0.0,2.0,1.0,5.0,1.0,,,,,,,,,0.0,training_resp,,338.60459601227194,7.437920792028308,5.0,,right,gold,0.0,28.0,1.0,right,2021_Oct_12_1615,habits_v_MRI,5.0,40.0,1.0,5.0,30.0,15.0,5.0,15.0,30.0,30.0,60.0,RR,59.7933584823933,
28.0,1.0,resp2,stim/right_resp_img.png,"[-0.5, 0]",right,stim/gold_coin.png,gold,,,,,training,,,gold,deval,,,,,0.0,0.0,0.0,0.0,2.0,1.0,5.0,1.0,,,,,,,,,0.0,training_resp,,338.838625818491,7.672105726785958,5.0,,right,gold,0.0,28.0,1.0,right,2021_Oct_12_1615,habits_v_MRI,5.0,40.0,1.0,5.0,30.0,15.0,5.0,15.0,30.0,30.0,60.0,RR,59.7933584823933,
28.0,1.0,resp2,stim/right_resp_img.png,"[-0.5, 0]",right,stim/gold_coin.png,gold,,,,,training,,,gold,deval,,,,,0.0,0.0,0.0,0.0,2.0,1.0,5.0,1.0,,,,,,,,,0.0,training_resp,,339.5908758342266,8.42433668114245,5.0,,right,gold,0.0,28.0,1.0,right,2021_Oct_12_1615,habits_v_MRI,5.0,40.0,1.0,5.0,30.0,15.0,5.0,15.0,30.0,30.0,60.0,RR,59.7933584823933,
28.0,1.0,resp2,stim/right_resp_img.png,"[-0.5, 0]",right,stim/gold_coin.png,gold,,,,,training,,,gold,deval,,,,,0.0,0.0,0.0,0.0,2.0,1.0,5.0,1.0,,,,,,,,,0.0,training_resp,,339.7579806614667,8.59146262332797,5.0,,right,gold,0.0,28.0,1.0,right,2021_Oct_12_1615,habits_v_MRI,5.0,40.0,1.0,5.0,30.0,15.0,5.0,15.0,30.0,30.0,60.0,RR,59.7933584823933,
28.0,1.0,resp2,stim/right_resp_img.png,"[-0.5, 0]",right,stim/gold_coin.png,gold,,,,,training,,,gold,deval,,,,,0.0,0.0,0.0,0.0,2.0,1.0,5.0,1.0,,,,,,,,,0.0,training_resp,,340.4435062799603,9.276977977715433,5.0,,right,gold,0.0,28.0,1.0,right,2021_Oct_12_1615,habits_v_MRI,5.0,40.0,1.0,5.0,30.0,15.0,5.0,15.0,30.0,30.0,60.0,RR,59.7933584823933,
28.0,1.0,resp2,stim/right_resp_img.png,"[-0.5, 0]",right,stim/gold_coin.png,gold,,,,,training,,,gold,deval,,,,,0.0,0.0,0.0,0.0,2.0,1.0,5.0,1.0,,,,,,,,,0.0,training_resp,,340.6274036411196,9.46088589541614,5.0,,right,gold,0.0,28.0,1.0,right,2021_Oct_12_1615,habits_v_MRI,5.0,40.0,1.0,5.0,30.0,15.0,5.0,15.0,30.0,30.0,60.0,RR,59.7933584823933,
28.0,1.0,resp2,stim/right_resp_img.png,"[-0.5, 0]",right,stim/gold_coin.png,gold,,,,,training,,,gold,deval,,,,,0.0,0.0,0.0,0.0,2.0,1.0,5.0,1.0,,,,,,,,,0.0,training_resp,,341.1958275558427,10.029307464137672,5.0,,right,gold,0.0,28.0,1.0,right,2021_Oct_12_1615,habits_v_MRI,5.0,40.0,1.0,5.0,30.0,15.0,5.0,15.0,30.0,30.0,60.0,RR,59.7933584823933,
28.0,1.0,resp2,stim/right_resp_img.png,"[-0.5, 0]",right,stim/gold_coin.png,gold,,,,,training,,,gold,deval,,,,,0.0,0.0,0.0,0.0,2.0,1.0,5.0,1.0,,,,,,,,,0.0,training_resp,,341.8479355517775,10.681338335387409,5.0,,right,gold,0.0,28.0,1.0,right,2021_Oct_12_1615,habits_v_MRI,5.0,40.0,1.0,5.0,30.0,15.0,5.0,15.0,30.0,30.0,60.0,RR,59.7933584823933,
28.0,1.0,resp2,stim/right_resp_img.png,"[-0.5, 0]",right,stim/gold_coin.png,gold,,,,,training,,,gold,deval,,,,,0.0,0.0,0.0,0.0,2.0,1.0,5.0,1.0,,,,,,,,,0.0,training_resp,,342.7005739156157,11.533973180688918,5.0,9.0,right,gold,1.0,28.0,1.0,right,2021_Oct_12_1615,habits_v_MRI,5.0,40.0,1.0,5.0,30.0,15.0,5.0,15.0,30.0,30.0,60.0,RR,59.7933584823933,
28.0,1.0,resp2,stim/right_resp_img.png,"[-0.5, 0]",right,stim/gold_coin.png,gold,,,,,training,,,gold,deval,,,,,0.0,0.0,0.0,0.0,2.0,1.0,5.0,1.0,,,,,,,,,0.0,training_resp,,343.9377303281799,12.77118765655905,5.0,,right,gold,0.0,28.0,1.0,right,2021_Oct_12_1615,habits_v_MRI,5.0,40.0,1.0,5.0,30.0,15.0,5.0,15.0,30.0,30.0,60.0,RR,59.7933584823933,
28.0,1.0,resp2,stim/right_resp_img.png,"[-0.5, 0]",right,stim/gold_coin.png,gold,,,,,training,,,gold,deval,,,,,0.0,0.0,0.0,0.0,2.0,1.0,5.0,1.0,,,,,,,,,0.0,ITI_start,15.0,375.83798272628337,44.67026970349252,,,,,,28.0,1.0,right,2021_Oct_12_1615,habits_v_MRI,5.0,40.0,1.0,5.0,30.0,15.0,5.0,15.0,30.0,30.0,60.0,RR,59.7933584823933,
28.0,0.0,resp1,stim/left_resp_img.png,"[0.5, 0]",left,stim/silver_coin.png,gold,,,,,training,,,silver,val,,,,,0.0,0.0,0.0,0.0,3.0,0.0,6.0,0.0,,,,,,,,,0.0,training_period_start,60.0,390.8686253465712,0.0,6.0,22.0,,,,28.0,1.0,right,2021_Oct_12_1615,habits_v_MRI,5.0,40.0,1.0,5.0,30.0,15.0,5.0,15.0,30.0,30.0,60.0,RR,59.7933584823933,
28.0,0.0,resp1,stim/left_resp_img.png,"[0.5, 0]",left,stim/silver_coin.png,gold,,,,,training,,,silver,val,,,,,0.0,0.0,0.0,0.0,3.0,0.0,6.0,0.0,,,,,,,,,0.0,training_resp,,392.0370489079505,1.1854486418887973,6.0,,left,silver,0.0,28.0,1.0,right,2021_Oct_12_1615,habits_v_MRI,5.0,40.0,1.0,5.0,30.0,15.0,5.0,15.0,30.0,30.0,60.0,RR,59.7933584823933,
28.0,0.0,resp1,stim/left_resp_img.png,"[0.5, 0]",left,stim/silver_coin.png,gold,,,,,training,,,silver,val,,,,,0.0,0.0,0.0,0.0,3.0,0.0,6.0,0.0,,,,,,,,,0.0,training_resp,,392.9065537042916,2.0548478681594133,6.0,,left,silver,0.0,28.0,1.0,right,2021_Oct_12_1615,habits_v_MRI,5.0,40.0,1.0,5.0,30.0,15.0,5.0,15.0,30.0,30.0,60.0,RR,59.7933584823933,
28.0,0.0,resp1,stim/left_resp_img.png,"[0.5, 0]",left,stim/silver_coin.png,gold,,,,,training,,,silver,val,,,,,0.0,0.0,0.0,0.0,3.0,0.0,6.0,0.0,,,,,,,,,0.0,training_resp,,393.0903660235927,2.2388123823329806,6.0,,left,silver,0.0,28.0,1.0,right,2021_Oct_12_1615,habits_v_MRI,5.0,40.0,1.0,5.0,30.0,15.0,5.0,15.0,30.0,30.0,60.0,RR,59.7933584823933,
28.0,0.0,resp1,stim/left_resp_img.png,"[0.5, 0]",left,stim/silver_coin.png,gold,,,,,training,,,silver,val,,,,,0.0,0.0,0.0,0.0,3.0,0.0,6.0,0.0,,,,,,,,,0.0,training_resp,,393.7925407774746,2.940968368202448,6.0,,left,silver,0.0,28.0,1.0,right,2021_Oct_12_1615,habits_v_MRI,5.0,40.0,1.0,5.0,30.0,15.0,5.0,15.0,30.0,30.0,60.0,RR,59.7933584823933,
28.0,0.0,resp1,stim/left_resp_img.png,"[0.5, 0]",left,stim/silver_coin.png,gold,,,,,training,,,silver,val,,,,,0.0,0.0,0.0,0.0,3.0,0.0,6.0,0.0,,,,,,,,,0.0,training_resp,,394.5950147313997,3.743372529745102,6.0,,left,silver,0.0,28.0,1.0,right,2021_Oct_12_1615,habits_v_MRI,5.0,40.0,1.0,5.0,30.0,15.0,5.0,15.0,30.0,30.0,60.0,RR,59.7933584823933,
28.0,0.0,resp1,stim/left_resp_img.png,"[0.5, 0]",left,stim/silver_coin.png,gold,,,,,training,,,silver,val,,,,,0.0,0.0,0.0,0.0,3.0,0.0,6.0,0.0,,,,,,,,,0.0,training_resp,,394.9297428485006,4.077790390700102,6.0,,left,silver,0.0,28.0,1.0,right,2021_Oct_12_1615,habits_v_MRI,5.0,40.0,1.0,5.0,30.0,15.0,5.0,15.0,30.0,30.0,60.0,RR,59.7933584823933,
28.0,0.0,resp1,stim/left_resp_img.png,"[0.5, 0]",left,stim/silver_coin.png,gold,,,,,training,,,silver,val,,,,,0.0,0.0,0.0,0.0,3.0,0.0,6.0,0.0,,,,,,,,,0.0,training_resp,,395.4645840413869,4.612786418758333,6.0,,left,silver,0.0,28.0,1.0,right,2021_Oct_12_1615,habits_v_MRI,5.0,40.0,1.0,5.0,30.0,15.0,5.0,15.0,30.0,30.0,60.0,RR,59.7933584823933,
28.0,0.0,resp1,stim/left_resp_img.png,"[0.5, 0]",left,stim/silver_coin.png,gold,,,,,training,,,silver,val,,,,,0.0,0.0,0.0,0.0,3.0,0.0,6.0,0.0,,,,,,,,,0.0,training_resp,,396.183364530094,5.3317472552880645,6.0,,left,silver,0.0,28.0,1.0,right,2021_Oct_12_1615,habits_v_MRI,5.0,40.0,1.0,5.0,30.0,15.0,5.0,15.0,30.0,30.0,60.0,RR,59.7933584823933,
28.0,0.0,resp1,stim/left_resp_img.png,"[0.5, 0]",left,stim/silver_coin.png,gold,,,,,training,,,silver,val,,,,,0.0,0.0,0.0,0.0,3.0,0.0,6.0,0.0,,,,,,,,,0.0,training_resp,,396.3838910860941,5.532320143654943,6.0,,left,silver,0.0,28.0,1.0,right,2021_Oct_12_1615,habits_v_MRI,5.0,40.0,1.0,5.0,30.0,15.0,5.0,15.0,30.0,30.0,60.0,RR,59.7933584823933,
28.0,0.0,resp1,stim/left_resp_img.png,"[0.5, 0]",left,stim/silver_coin.png,gold,,,,,training,,,silver,val,,,,,0.0,0.0,0.0,0.0,3.0,0.0,6.0,0.0,,,,,,,,,0.0,training_resp,,397.0024741310626,6.150905241258442,6.0,,left,silver,0.0,28.0,1.0,right,2021_Oct_12_1615,habits_v_MRI,5.0,40.0,1.0,5.0,30.0,15.0,5.0,15.0,30.0,30.0,60.0,RR,59.7933584823933,
28.0,0.0,resp1,stim/left_resp_img.png,"[0.5, 0]",left,stim/silver_coin.png,gold,,,,,training,,,silver,val,,,,,0.0,0.0,0.0,0.0,3.0,0.0,6.0,0.0,,,,,,,,,0.0,training_resp,,397.270032113418,6.418439471162856,6.0,,left,silver,0.0,28.0,1.0,right,2021_Oct_12_1615,habits_v_MRI,5.0,40.0,1.0,5.0,30.0,15.0,5.0,15.0,30.0,30.0,60.0,RR,59.7933584823933,
28.0,0.0,resp1,stim/left_resp_img.png,"[0.5, 0]",left,stim/silver_coin.png,gold,,,,,training,,,silver,val,,,,,0.0,0.0,0.0,0.0,3.0,0.0,6.0,0.0,,,,,,,,,0.0,training_resp,,397.8719053212553,7.020334378816187,6.0,,left,silver,0.0,28.0,1.0,right,2021_Oct_12_1615,habits_v_MRI,5.0,40.0,1.0,5.0,30.0,15.0,5.0,15.0,30.0,30.0,60.0,RR,59.7933584823933,
28.0,0.0,resp1,stim/left_resp_img.png,"[0.5, 0]",left,stim/silver_coin.png,gold,,,,,training,,,silver,val,,,,,0.0,0.0,0.0,0.0,3.0,0.0,6.0,0.0,,,,,,,,,0.0,training_resp,,398.1058738389984,7.254312573932111,6.0,,left,silver,0.0,28.0,1.0,right,2021_Oct_12_1615,habits_v_MRI,5.0,40.0,1.0,5.0,30.0,15.0,5.0,15.0,30.0,30.0,60.0,RR,59.7933584823933,
28.0,0.0,resp1,stim/left_resp_img.png,"[0.5, 0]",left,stim/silver_coin.png,gold,,,,,training,,,silver,val,,,,,0.0,0.0,0.0,0.0,3.0,0.0,6.0,0.0,,,,,,,,,0.0,training_resp,,398.2563746906817,7.404816064983606,6.0,,right,,,28.0,1.0,right,2021_Oct_12_1615,habits_v_MRI,5.0,40.0,1.0,5.0,30.0,15.0,5.0,15.0,30.0,30.0,60.0,RR,59.7933584823933,
28.0,0.0,resp1,stim/left_resp_img.png,"[0.5, 0]",left,stim/silver_coin.png,gold,,,,,training,,,silver,val,,,,,0.0,0.0,0.0,0.0,3.0,0.0,6.0,0.0,,,,,,,,,0.0,training_resp,,398.5740489903837,7.72248391341418,6.0,,left,silver,0.0,28.0,1.0,right,2021_Oct_12_1615,habits_v_MRI,5.0,40.0,1.0,5.0,30.0,15.0,5.0,15.0,30.0,30.0,60.0,RR,59.7933584823933,
28.0,0.0,resp1,stim/left_resp_img.png,"[0.5, 0]",left,stim/silver_coin.png,gold,,,,,training,,,silver,val,,,,,0.0,0.0,0.0,0.0,3.0,0.0,6.0,0.0,,,,,,,,,0.0,training_resp,,398.8247801307589,7.973209481686354,6.0,,left,silver,0.0,28.0,1.0,right,2021_Oct_12_1615,habits_v_MRI,5.0,40.0,1.0,5.0,30.0,15.0,5.0,15.0,30.0,30.0,60.0,RR,59.7933584823933,
28.0,0.0,resp1,stim/left_resp_img.png,"[0.5, 0]",left,stim/silver_coin.png,gold,,,,,training,,,silver,val,,,,,0.0,0.0,0.0,0.0,3.0,0.0,6.0,0.0,,,,,,,,,0.0,training_resp,,399.4601510167122,8.60853579454124,6.0,,left,silver,0.0,28.0,1.0,right,2021_Oct_12_1615,habits_v_MRI,5.0,40.0,1.0,5.0,30.0,15.0,5.0,15.0,30.0,30.0,60.0,RR,59.7933584823933,
28.0,0.0,resp1,stim/left_resp_img.png,"[0.5, 0]",left,stim/silver_coin.png,gold,,,,,training,,,silver,val,,,,,0.0,0.0,0.0,0.0,3.0,0.0,6.0,0.0,,,,,,,,,0.0,training_resp,,399.6942013502121,8.842592579312623,6.0,,left,silver,0.0,28.0,1.0,right,2021_Oct_12_1615,habits_v_MRI,5.0,40.0,1.0,5.0,30.0,15.0,5.0,15.0,30.0,30.0,60.0,RR,59.7933584823933,
28.0,0.0,resp1,stim/left_resp_img.png,"[0.5, 0]",left,stim/silver_coin.png,gold,,,,,training,,,silver,val,,,,,0.0,0.0,0.0,0.0,3.0,0.0,6.0,0.0,,,,,,,,,0.0,training_resp,,400.24592158570886,9.394264134578409,6.0,,left,silver,0.0,28.0,1.0,right,2021_Oct_12_1615,habits_v_MRI,5.0,40.0,1.0,5.0,30.0,15.0,5.0,15.0,30.0,30.0,60.0,RR,59.7933584823933,
28.0,0.0,resp1,stim/left_resp_img.png,"[0.5, 0]",left,stim/silver_coin.png,gold,,,,,training,,,silver,val,,,,,0.0,0.0,0.0,0.0,3.0,0.0,6.0,0.0,,,,,,,,,0.0,training_resp,,400.4466284876689,9.59493350237608,6.0,,left,silver,0.0,28.0,1.0,right,2021_Oct_12_1615,habits_v_MRI,5.0,40.0,1.0,5.0,30.0,15.0,5.0,15.0,30.0,30.0,60.0,RR,59.7933584823933,
28.0,0.0,resp1,stim/left_resp_img.png,"[0.5, 0]",left,stim/silver_coin.png,gold,,,,,training,,,silver,val,,,,,0.0,0.0,0.0,0.0,3.0,0.0,6.0,0.0,,,,,,,,,0.0,training_resp,,400.6472242502496,9.795567679218948,6.0,,right,,,28.0,1.0,right,2021_Oct_12_1615,habits_v_MRI,5.0,40.0,1.0,5.0,30.0,15.0,5.0,15.0,30.0,30.0,60.0,RR,59.7933584823933,
28.0,0.0,resp1,stim/left_resp_img.png,"[0.5, 0]",left,stim/silver_coin.png,gold,,,,,training,,,silver,val,,,,,0.0,0.0,0.0,0.0,3.0,0.0,6.0,0.0,,,,,,,,,0.0,training_resp,,400.99874167423695,10.147105924785135,6.0,,left,silver,0.0,28.0,1.0,right,2021_Oct_12_1615,habits_v_MRI,5.0,40.0,1.0,5.0,30.0,15.0,5.0,15.0,30.0,30.0,60.0,RR,59.7933584823933,
28.0,0.0,resp1,stim/left_resp_img.png,"[0.5, 0]",left,stim/silver_coin.png,gold,,,,,training,,,silver,val,,,,,0.0,0.0,0.0,0.0,3.0,0.0,6.0,0.0,,,,,,,,,0.0,training_resp,,401.2157159047201,10.364080741070213,6.0,,left,silver,0.0,28.0,1.0,right,2021_Oct_12_1615,habits_v_MRI,5.0,40.0,1.0,5.0,30.0,15.0,5.0,15.0,30.0,30.0,60.0,RR,59.7933584823933,
28.0,0.0,resp1,stim/left_resp_img.png,"[0.5, 0]",left,stim/silver_coin.png,gold,,,,,training,,,silver,val,,,,,0.0,0.0,0.0,0.0,3.0,0.0,6.0,0.0,,,,,,,,,0.0,training_resp,,401.7338023930788,10.882218841463327,6.0,6.0,left,silver,1.0,28.0,1.0,right,2021_Oct_12_1615,habits_v_MRI,5.0,40.0,1.0,5.0,30.0,15.0,5.0,15.0,30.0,30.0,60.0,RR,59.7933584823933,
28.0,0.0,resp1,stim/left_resp_img.png,"[0.5, 0]",left,stim/silver_coin.png,gold,,,,,training,,,silver,val,,,,,0.0,0.0,0.0,0.0,3.0,0.0,6.0,0.0,,,,,,,,,0.0,ITI_start,25.0,450.5199987571687,59.667103508487344,,,,,,28.0,1.0,right,2021_Oct_12_1615,habits_v_MRI,5.0,40.0,1.0,5.0,30.0,15.0,5.0,15.0,30.0,30.0,60.0,RR,59.7933584823933,
28.0,1.0,resp2,stim/right_resp_img.png,"[-0.5, 0]",right,stim/gold_coin.png,gold,,,,,training,,,gold,deval,,,,,0.0,0.0,0.0,0.0,3.0,1.0,7.0,1.0,,,,,,,,,0.0,training_period_start,52.5,475.5516824061051,0.0,7.0,11.0,,,,28.0,1.0,right,2021_Oct_12_1615,habits_v_MRI,5.0,40.0,1.0,5.0,30.0,15.0,5.0,15.0,30.0,30.0,60.0,RR,59.7933584823933,
28.0,1.0,resp2,stim/right_resp_img.png,"[-0.5, 0]",right,stim/gold_coin.png,gold,,,,,training,,,gold,deval,,,,,0.0,0.0,0.0,0.0,3.0,1.0,7.0,1.0,,,,,,,,,0.0,training_resp,,476.7000076537952,1.1685684267431498,7.0,,right,gold,0.0,28.0,1.0,right,2021_Oct_12_1615,habits_v_MRI,5.0,40.0,1.0,5.0,30.0,15.0,5.0,15.0,30.0,30.0,60.0,RR,59.7933584823933,
28.0,1.0,resp2,stim/right_resp_img.png,"[-0.5, 0]",right,stim/gold_coin.png,gold,,,,,training,,,gold,deval,,,,,0.0,0.0,0.0,0.0,3.0,1.0,7.0,1.0,,,,,,,,,0.0,training_resp,,477.4185696728528,1.887237187474966,7.0,,right,gold,0.0,28.0,1.0,right,2021_Oct_12_1615,habits_v_MRI,5.0,40.0,1.0,5.0,30.0,15.0,5.0,15.0,30.0,30.0,60.0,RR,59.7933584823933,
28.0,1.0,resp2,stim/right_resp_img.png,"[-0.5, 0]",right,stim/gold_coin.png,gold,,,,,training,,,gold,deval,,,,,0.0,0.0,0.0,0.0,3.0,1.0,7.0,1.0,,,,,,,,,0.0,training_resp,,477.5857580760494,2.0544335087761283,7.0,,right,gold,0.0,28.0,1.0,right,2021_Oct_12_1615,habits_v_MRI,5.0,40.0,1.0,5.0,30.0,15.0,5.0,15.0,30.0,30.0,60.0,RR,59.7933584823933,
28.0,1.0,resp2,stim/right_resp_img.png,"[-0.5, 0]",right,stim/gold_coin.png,gold,,,,,training,,,gold,deval,,,,,0.0,0.0,0.0,0.0,3.0,1.0,7.0,1.0,,,,,,,,,0.0,training_resp,,478.32138622924685,2.790042013861239,7.0,,right,gold,0.0,28.0,1.0,right,2021_Oct_12_1615,habits_v_MRI,5.0,40.0,1.0,5.0,30.0,15.0,5.0,15.0,30.0,30.0,60.0,RR,59.7933584823933,
28.0,1.0,resp2,stim/right_resp_img.png,"[-0.5, 0]",right,stim/gold_coin.png,gold,,,,,training,,,gold,deval,,,,,0.0,0.0,0.0,0.0,3.0,1.0,7.0,1.0,,,,,,,,,0.0,training_resp,,478.5052636489272,2.9739522775635123,7.0,,right,gold,0.0,28.0,1.0,right,2021_Oct_12_1615,habits_v_MRI,5.0,40.0,1.0,5.0,30.0,15.0,5.0,15.0,30.0,30.0,60.0,RR,59.7933584823933,
28.0,1.0,resp2,stim/right_resp_img.png,"[-0.5, 0]",right,stim/gold_coin.png,gold,,,,,training,,,gold,deval,,,,,0.0,0.0,0.0,0.0,3.0,1.0,7.0,1.0,,,,,,,,,0.0,training_resp,,479.1572948144749,3.625978164374828,7.0,,right,gold,0.0,28.0,1.0,right,2021_Oct_12_1615,habits_v_MRI,5.0,40.0,1.0,5.0,30.0,15.0,5.0,15.0,30.0,30.0,60.0,RR,59.7933584823933,
28.0,1.0,resp2,stim/right_resp_img.png,"[-0.5, 0]",right,stim/gold_coin.png,gold,,,,,training,,,gold,deval,,,,,0.0,0.0,0.0,0.0,3.0,1.0,7.0,1.0,,,,,,,,,0.0,training_resp,,479.3077200083062,3.776428870856762,7.0,,right,gold,0.0,28.0,1.0,right,2021_Oct_12_1615,habits_v_MRI,5.0,40.0,1.0,5.0,30.0,15.0,5.0,15.0,30.0,30.0,60.0,RR,59.7933584823933,
28.0,1.0,resp2,stim/right_resp_img.png,"[-0.5, 0]",right,stim/gold_coin.png,gold,,,,,training,,,gold,deval,,,,,0.0,0.0,0.0,0.0,3.0,1.0,7.0,1.0,,,,,,,,,0.0,training_resp,,480.0437434585765,4.512352617457509,7.0,,right,gold,0.0,28.0,1.0,right,2021_Oct_12_1615,habits_v_MRI,5.0,40.0,1.0,5.0,30.0,15.0,5.0,15.0,30.0,30.0,60.0,RR,59.7933584823933,
28.0,1.0,resp2,stim/right_resp_img.png,"[-0.5, 0]",right,stim/gold_coin.png,gold,,,,,training,,,gold,deval,,,,,0.0,0.0,0.0,0.0,3.0,1.0,7.0,1.0,,,,,,,,,0.0,training_resp,,480.2443720642477,4.71291377581656,7.0,,right,gold,0.0,28.0,1.0,right,2021_Oct_12_1615,habits_v_MRI,5.0,40.0,1.0,5.0,30.0,15.0,5.0,15.0,30.0,30.0,60.0,RR,59.7933584823933,
28.0,1.0,resp2,stim/right_resp_img.png,"[-0.5, 0]",right,stim/gold_coin.png,gold,,,,,training,,,gold,deval,,,,,0.0,0.0,0.0,0.0,3.0,1.0,7.0,1.0,,,,,,,,,0.0,training_resp,,480.8630222631618,5.331480106338859,7.0,,right,gold,0.0,28.0,1.0,right,2021_Oct_12_1615,habits_v_MRI,5.0,40.0,1.0,5.0,30.0,15.0,5.0,15.0,30.0,30.0,60.0,RR,59.7933584823933,
28.0,1.0,resp2,stim/right_resp_img.png,"[-0.5, 0]",right,stim/gold_coin.png,gold,,,,,training,,,gold,deval,,,,,0.0,0.0,0.0,0.0,3.0,1.0,7.0,1.0,,,,,,,,,0.0,training_resp,,481.0803002975881,5.548872507177293,7.0,9.0,right,gold,1.0,28.0,1.0,right,2021_Oct_12_1615,habits_v_MRI,5.0,40.0,1.0,5.0,30.0,15.0,5.0,15.0,30.0,30.0,60.0,RR,59.7933584823933,
28.0,1.0,resp2,stim/right_resp_img.png,"[-0.5, 0]",right,stim/gold_coin.png,gold,,,,,training,,,gold,deval,,,,,0.0,0.0,0.0,0.0,3.0,1.0,7.0,1.0,,,,,,,,,0.0,training_resp,,482.3843180546537,6.852864750660956,7.0,,right,gold,0.0,28.0,1.0,right,2021_Oct_12_1615,habits_v_MRI,5.0,40.0,1.0,5.0,30.0,15.0,5.0,15.0,30.0,30.0,60.0,RR,59.7933584823933,
28.0,1.0,resp2,stim/right_resp_img.png,"[-0.5, 0]",right,stim/gold_coin.png,gold,,,,,training,,,gold,deval,,,,,0.0,0.0,0.0,0.0,3.0,1.0,7.0,1.0,,,,,,,,,0.0,ITI_start,30.0,527.7096827737987,52.17699343152344,,,,,,28.0,1.0,right,2021_Oct_12_1615,habits_v_MRI,5.0,40.0,1.0,5.0,30.0,15.0,5.0,15.0,30.0,30.0,60.0,RR,59.7933584823933,
28.0,0.0,resp1,stim/left_resp_img.png,"[0.5, 0]",left,stim/silver_coin.png,gold,,,,,training,,,silver,val,,,,,0.0,0.0,0.0,0.0,4.0,0.0,8.0,0.0,,,,,,,,,0.0,training_period_start,45.0,557.7401855150238,0.0,8.0,13.0,,,,28.0,1.0,right,2021_Oct_12_1615,habits_v_MRI,5.0,40.0,1.0,5.0,30.0,15.0,5.0,15.0,30.0,30.0,60.0,RR,59.7933584823933,
28.0,0.0,resp1,stim/left_resp_img.png,"[0.5, 0]",left,stim/silver_coin.png,gold,,,,,training,,,silver,val,,,,,0.0,0.0,0.0,0.0,4.0,0.0,8.0,0.0,,,,,,,,,0.0,training_resp,,558.821640914306,1.1013545980677009,8.0,,left,silver,0.0,28.0,1.0,right,2021_Oct_12_1615,habits_v_MRI,5.0,40.0,1.0,5.0,30.0,15.0,5.0,15.0,30.0,30.0,60.0,RR,59.7933584823933,
28.0,0.0,resp1,stim/left_resp_img.png,"[0.5, 0]",left,stim/silver_coin.png,gold,,,,,training,,,silver,val,,,,,0.0,0.0,0.0,0.0,4.0,0.0,8.0,0.0,,,,,,,,,0.0,training_resp,,559.6406074101105,1.9206152213737369,8.0,,left,silver,0.0,28.0,1.0,right,2021_Oct_12_1615,habits_v_MRI,5.0,40.0,1.0,5.0,30.0,15.0,5.0,15.0,30.0,30.0,60.0,RR,59.7933584823933,
28.0,0.0,resp1,stim/left_resp_img.png,"[0.5, 0]",left,stim/silver_coin.png,gold,,,,,training,,,silver,val,,,,,0.0,0.0,0.0,0.0,4.0,0.0,8.0,0.0,,,,,,,,,0.0,training_resp,,559.9251588014886,2.20503113232553,8.0,,left,silver,0.0,28.0,1.0,right,2021_Oct_12_1615,habits_v_MRI,5.0,40.0,1.0,5.0,30.0,15.0,5.0,15.0,30.0,30.0,60.0,RR,59.7933584823933,
28.0,0.0,resp1,stim/left_resp_img.png,"[0.5, 0]",left,stim/silver_coin.png,gold,,,,,training,,,silver,val,,,,,0.0,0.0,0.0,0.0,4.0,0.0,8.0,0.0,,,,,,,,,0.0,training_resp,,560.6941984184086,2.974064883776009,8.0,,left,silver,0.0,28.0,1.0,right,2021_Oct_12_1615,habits_v_MRI,5.0,40.0,1.0,5.0,30.0,15.0,5.0,15.0,30.0,30.0,60.0,RR,59.7933584823933,
28.0,0.0,resp1,stim/left_resp_img.png,"[0.5, 0]",left,stim/silver_coin.png,gold,,,,,training,,,silver,val,,,,,0.0,0.0,0.0,0.0,4.0,0.0,8.0,0.0,,,,,,,,,0.0,training_resp,,560.911569705233,3.1914473148062825,8.0,,left,silver,0.0,28.0,1.0,right,2021_Oct_12_1615,habits_v_MRI,5.0,40.0,1.0,5.0,30.0,15.0,5.0,15.0,30.0,30.0,60.0,RR,59.7933584823933,
28.0,0.0,resp1,stim/left_resp_img.png,"[0.5, 0]",left,stim/silver_coin.png,gold,,,,,training,,,silver,val,,,,,0.0,0.0,0.0,0.0,4.0,0.0,8.0,0.0,,,,,,,,,0.0,training_resp,,561.7474477924407,4.027311032637954,8.0,,left,silver,0.0,28.0,1.0,right,2021_Oct_12_1615,habits_v_MRI,5.0,40.0,1.0,5.0,30.0,15.0,5.0,15.0,30.0,30.0,60.0,RR,59.7933584823933,
28.0,0.0,resp1,stim/left_resp_img.png,"[0.5, 0]",left,stim/silver_coin.png,gold,,,,,training,,,silver,val,,,,,0.0,0.0,0.0,0.0,4.0,0.0,8.0,0.0,,,,,,,,,0.0,training_resp,,561.9480156963691,4.227889199741185,8.0,,left,silver,0.0,28.0,1.0,right,2021_Oct_12_1615,habits_v_MRI,5.0,40.0,1.0,5.0,30.0,15.0,5.0,15.0,30.0,30.0,60.0,RR,59.7933584823933,
28.0,0.0,resp1,stim/left_resp_img.png,"[0.5, 0]",left,stim/silver_coin.png,gold,,,,,training,,,silver,val,,,,,0.0,0.0,0.0,0.0,4.0,0.0,8.0,0.0,,,,,,,,,0.0,training_resp,,562.215594499372,4.495468590408564,8.0,,left,silver,0.0,28.0,1.0,right,2021_Oct_12_1615,habits_v_MRI,5.0,40.0,1.0,5.0,30.0,15.0,5.0,15.0,30.0,30.0,60.0,RR,59.7933584823933,
28.0,0.0,resp1,stim/left_resp_img.png,"[0.5, 0]",left,stim/silver_coin.png,gold,,,,,training,,,silver,val,,,,,0.0,0.0,0.0,0.0,4.0,0.0,8.0,0.0,,,,,,,,,0.0,training_resp,,562.8843539766967,5.164169418625534,8.0,,left,silver,0.0,28.0,1.0,right,2021_Oct_12_1615,habits_v_MRI,5.0,40.0,1.0,5.0,30.0,15.0,5.0,15.0,30.0,30.0,60.0,RR,59.7933584823933,
28.0,0.0,resp1,stim/left_resp_img.png,"[0.5, 0]",left,stim/silver_coin.png,gold,,,,,training,,,silver,val,,,,,0.0,0.0,0.0,0.0,4.0,0.0,8.0,0.0,,,,,,,,,0.0,training_resp,,563.1018267273903,5.381490852683783,8.0,,left,silver,0.0,28.0,1.0,right,2021_Oct_12_1615,habits_v_MRI,5.0,40.0,1.0,5.0,30.0,15.0,5.0,15.0,30.0,30.0,60.0,RR,59.7933584823933,
28.0,0.0,resp1,stim/left_resp_img.png,"[0.5, 0]",left,stim/silver_coin.png,gold,,,,,training,,,silver,val,,,,,0.0,0.0,0.0,0.0,4.0,0.0,8.0,0.0,,,,,,,,,0.0,training_resp,,563.8039448847994,6.083659742027521,8.0,,left,silver,0.0,28.0,1.0,right,2021_Oct_12_1615,habits_v_MRI,5.0,40.0,1.0,5.0,30.0,15.0,5.0,15.0,30.0,30.0,60.0,RR,59.7933584823933,
28.0,0.0,resp1,stim/left_resp_img.png,"[0.5, 0]",left,stim/silver_coin.png,gold,,,,,training,,,silver,val,,,,,0.0,0.0,0.0,0.0,4.0,0.0,8.0,0.0,,,,,,,,,0.0,training_resp,,564.0384063515812,6.3177411602810025,8.0,,left,silver,0.0,28.0,1.0,right,2021_Oct_12_1615,habits_v_MRI,5.0,40.0,1.0,5.0,30.0,15.0,5.0,15.0,30.0,30.0,60.0,RR,59.7933584823933,
28.0,0.0,resp1,stim/left_resp_img.png,"[0.5, 0]",left,stim/silver_coin.png,gold,,,,,training,,,silver,val,,,,,0.0,0.0,0.0,0.0,4.0,0.0,8.0,0.0,,,,,,,,,0.0,training_resp,,564.6733165457845,6.953136385418475,8.0,19.0,left,silver,1.0,28.0,1.0,right,2021_Oct_12_1615,habits_v_MRI,5.0,40.0,1.0,5.0,30.0,15.0,5.0,15.0,30.0,30.0,60.0,RR,59.7933584823933,
28.0,0.0,resp1,stim/left_resp_img.png,"[0.5, 0]",left,stim/silver_coin.png,gold,,,,,training,,,silver,val,,,,,0.0,0.0,0.0,0.0,4.0,0.0,8.0,0.0,,,,,,,,,0.0,ITI_start,21.666666666666668,602.3915882501751,44.670237445272505,,,,,,28.0,1.0,right,2021_Oct_12_1615,habits_v_MRI,5.0,40.0,1.0,5.0,30.0,15.0,5.0,15.0,30.0,30.0,60.0,RR,59.7933584823933,
28.0,1.0,resp2,stim/right_resp_img.png,"[-0.5, 0]",right,stim/gold_coin.png,gold,,,,,training,,,gold,deval,,,,,0.0,0.0,0.0,0.0,4.0,1.0,9.0,1.0,,,,,,,,,0.0,training_period_start,37.5,624.0960518019274,0.0,9.0,20.0,,,,28.0,1.0,right,2021_Oct_12_1615,habits_v_MRI,5.0,40.0,1.0,5.0,30.0,15.0,5.0,15.0,30.0,30.0,60.0,RR,59.7933584823933,
28.0,1.0,resp2,stim/right_resp_img.png,"[-0.5, 0]",right,stim/gold_coin.png,gold,,,,,training,,,gold,deval,,,,,0.0,0.0,0.0,0.0,4.0,1.0,9.0,1.0,,,,,,,,,0.0,training_resp,,625.6287235487252,1.5528556890785694,9.0,,right,gold,0.0,28.0,1.0,right,2021_Oct_12_1615,habits_v_MRI,5.0,40.0,1.0,5.0,30.0,15.0,5.0,15.0,30.0,30.0,60.0,RR,59.7933584823933,
28.0,1.0,resp2,stim/right_resp_img.png,"[-0.5, 0]",right,stim/gold_coin.png,gold,,,,,training,,,gold,deval,,,,,0.0,0.0,0.0,0.0,4.0,1.0,9.0,1.0,,,,,,,,,0.0,training_resp,,626.3977892650291,2.3219727240502834,9.0,,right,gold,0.0,28.0,1.0,right,2021_Oct_12_1615,habits_v_MRI,5.0,40.0,1.0,5.0,30.0,15.0,5.0,15.0,30.0,30.0,60.0,RR,59.7933584823933,
28.0,1.0,resp2,stim/right_resp_img.png,"[-0.5, 0]",right,stim/gold_coin.png,gold,,,,,training,,,gold,deval,,,,,0.0,0.0,0.0,0.0,4.0,1.0,9.0,1.0,,,,,,,,,0.0,training_resp,,626.64834181685,2.5725701423361897,9.0,,right,gold,0.0,28.0,1.0,right,2021_Oct_12_1615,habits_v_MRI,5.0,40.0,1.0,5.0,30.0,15.0,5.0,15.0,30.0,30.0,60.0,RR,59.7933584823933,
28.0,1.0,resp2,stim/right_resp_img.png,"[-0.5, 0]",right,stim/gold_coin.png,gold,,,,,training,,,gold,deval,,,,,0.0,0.0,0.0,0.0,4.0,1.0,9.0,1.0,,,,,,,,,0.0,training_resp,,626.8825003588572,2.80674246698618,9.0,,right,gold,0.0,28.0,1.0,right,2021_Oct_12_1615,habits_v_MRI,5.0,40.0,1.0,5.0,30.0,15.0,5.0,15.0,30.0,30.0,60.0,RR,59.7933584823933,
28.0,1.0,resp2,stim/right_resp_img.png,"[-0.5, 0]",right,stim/gold_coin.png,gold,,,,,training,,,gold,deval,,,,,0.0,0.0,0.0,0.0,4.0,1.0,9.0,1.0,,,,,,,,,0.0,training_resp,,627.6349216308445,3.5590537721291184,9.0,,right,gold,0.0,28.0,1.0,right,2021_Oct_12_1615,habits_v_MRI,5.0,40.0,1.0,5.0,30.0,15.0,5.0,15.0,30.0,30.0,60.0,RR,59.7933584823933,
28.0,1.0,resp2,stim/right_resp_img.png,"[-0.5, 0]",right,stim/gold_coin.png,gold,,,,,training,,,gold,deval,,,,,0.0,0.0,0.0,0.0,4.0,1.0,9.0,1.0,,,,,,,,,0.0,training_resp,,627.8361053550616,3.760044538415968,9.0,,right,gold,0.0,28.0,1.0,right,2021_Oct_12_1615,habits_v_MRI,5.0,40.0,1.0,5.0,30.0,15.0,5.0,15.0,30.0,30.0,60.0,RR,59.7933584823933,
28.0,1.0,resp2,stim/right_resp_img.png,"[-0.5, 0]",right,stim/gold_coin.png,gold,,,,,training,,,gold,deval,,,,,0.0,0.0,0.0,0.0,4.0,1.0,9.0,1.0,,,,,,,,,0.0,training_resp,,628.5716135688126,4.495591168291867,9.0,,right,gold,0.0,28.0,1.0,right,2021_Oct_12_1615,habits_v_MRI,5.0,40.0,1.0,5.0,30.0,15.0,5.0,15.0,30.0,30.0,60.0,RR,59.7933584823933,
28.0,1.0,resp2,stim/right_resp_img.png,"[-0.5, 0]",right,stim/gold_coin.png,gold,,,,,training,,,gold,deval,,,,,0.0,0.0,0.0,0.0,4.0,1.0,9.0,1.0,,,,,,,,,0.0,training_resp,,628.7555795498192,4.679579729214311,9.0,,right,gold,0.0,28.0,1.0,right,2021_Oct_12_1615,habits_v_MRI,5.0,40.0,1.0,5.0,30.0,15.0,5.0,15.0,30.0,30.0,60.0,RR,59.7933584823933,
28.0,1.0,resp2,stim/right_resp_img.png,"[-0.5, 0]",right,stim/gold_coin.png,gold,,,,,training,,,gold,deval,,,,,0.0,0.0,0.0,0.0,4.0,1.0,9.0,1.0,,,,,,,,,0.0,training_resp,,629.5413020253181,5.465274639427662,9.0,,right,gold,0.0,28.0,1.0,right,2021_Oct_12_1615,habits_v_MRI,5.0,40.0,1.0,5.0,30.0,15.0,5.0,15.0,30.0,30.0,60.0,RR,59.7933584823933,
28.0,1.0,resp2,stim/right_resp_img.png,"[-0.5, 0]",right,stim/gold_coin.png,gold,,,,,training,,,gold,deval,,,,,0.0,0.0,0.0,0.0,4.0,1.0,9.0,1.0,,,,,,,,,0.0,training_resp,,629.7085311906412,5.632506443187594,9.0,,right,gold,0.0,28.0,1.0,right,2021_Oct_12_1615,habits_v_MRI,5.0,40.0,1.0,5.0,30.0,15.0,5.0,15.0,30.0,30.0,60.0,RR,59.7933584823933,
28.0,1.0,resp2,stim/right_resp_img.png,"[-0.5, 0]",right,stim/gold_coin.png,gold,,,,,training,,,gold,deval,,,,,0.0,0.0,0.0,0.0,4.0,1.0,9.0,1.0,,,,,,,,,0.0,training_resp,,630.5444547310472,6.468436142429709,9.0,,right,gold,0.0,28.0,1.0,right,2021_Oct_12_1615,habits_v_MRI,5.0,40.0,1.0,5.0,30.0,15.0,5.0,15.0,30.0,30.0,60.0,RR,59.7933584823933,
28.0,1.0,resp2,stim/right_resp_img.png,"[-0.5, 0]",right,stim/gold_coin.png,gold,,,,,training,,,gold,deval,,,,,0.0,0.0,0.0,0.0,4.0,1.0,9.0,1.0,,,,,,,,,0.0,training_resp,,630.8286043731496,6.752593701705337,9.0,,right,gold,0.0,28.0,1.0,right,2021_Oct_12_1615,habits_v_MRI,5.0,40.0,1.0,5.0,30.0,15.0,5.0,15.0,30.0,30.0,60.0,RR,59.7933584823933,
28.0,1.0,resp2,stim/right_resp_img.png,"[-0.5, 0]",right,stim/gold_coin.png,gold,,,,,training,,,gold,deval,,,,,0.0,0.0,0.0,0.0,4.0,1.0,9.0,1.0,,,,,,,,,0.0,training_resp,,631.5643351627514,7.488281677477062,9.0,,right,gold,0.0,28.0,1.0,right,2021_Oct_12_1615,habits_v_MRI,5.0,40.0,1.0,5.0,30.0,15.0,5.0,15.0,30.0,30.0,60.0,RR,59.7933584823933,
28.0,1.0,resp2,stim/right_resp_img.png,"[-0.5, 0]",right,stim/gold_coin.png,gold,,,,,training,,,gold,deval,,,,,0.0,0.0,0.0,0.0,4.0,1.0,9.0,1.0,,,,,,,,,0.0,training_resp,,632.4003038639203,8.324183518067002,9.0,,right,gold,0.0,28.0,1.0,right,2021_Oct_12_1615,habits_v_MRI,5.0,40.0,1.0,5.0,30.0,15.0,5.0,15.0,30.0,30.0,60.0,RR,59.7933584823933,
28.0,1.0,resp2,stim/right_resp_img.png,"[-0.5, 0]",right,stim/gold_coin.png,gold,,,,,training,,,gold,deval,,,,,0.0,0.0,0.0,0.0,4.0,1.0,9.0,1.0,,,,,,,,,0.0,training_resp,,633.2529712589458,9.176899299025536,9.0,,right,gold,0.0,28.0,1.0,right,2021_Oct_12_1615,habits_v_MRI,5.0,40.0,1.0,5.0,30.0,15.0,5.0,15.0,30.0,30.0,60.0,RR,59.7933584823933,
28.0,1.0,resp2,stim/right_resp_img.png,"[-0.5, 0]",right,stim/gold_coin.png,gold,,,,,training,,,gold,deval,,,,,0.0,0.0,0.0,0.0,4.0,1.0,9.0,1.0,,,,,,,,,0.0,training_resp,,633.4035630179569,9.32734912633896,9.0,,right,gold,0.0,28.0,1.0,right,2021_Oct_12_1615,habits_v_MRI,5.0,40.0,1.0,5.0,30.0,15.0,5.0,15.0,30.0,30.0,60.0,RR,59.7933584823933,
28.0,1.0,resp2,stim/right_resp_img.png,"[-0.5, 0]",right,stim/gold_coin.png,gold,,,,,training,,,gold,deval,,,,,0.0,0.0,0.0,0.0,4.0,1.0,9.0,1.0,,,,,,,,,0.0,training_resp,,634.2225453490391,10.146528519690037,9.0,,right,gold,0.0,28.0,1.0,right,2021_Oct_12_1615,habits_v_MRI,5.0,40.0,1.0,5.0,30.0,15.0,5.0,15.0,30.0,30.0,60.0,RR,59.7933584823933,
28.0,1.0,resp2,stim/right_resp_img.png,"[-0.5, 0]",right,stim/gold_coin.png,gold,,,,,training,,,gold,deval,,,,,0.0,0.0,0.0,0.0,4.0,1.0,9.0,1.0,,,,,,,,,0.0,training_resp,,634.3730271402746,10.297019401565194,9.0,,right,gold,0.0,28.0,1.0,right,2021_Oct_12_1615,habits_v_MRI,5.0,40.0,1.0,5.0,30.0,15.0,5.0,15.0,30.0,30.0,60.0,RR,59.7933584823933,
28.0,1.0,resp2,stim/right_resp_img.png,"[-0.5, 0]",right,stim/gold_coin.png,gold,,,,,training,,,gold,deval,,,,,0.0,0.0,0.0,0.0,4.0,1.0,9.0,1.0,,,,,,,,,0.0,training_resp,,635.0752165559679,10.999172748066483,9.0,,right,gold,0.0,28.0,1.0,right,2021_Oct_12_1615,habits_v_MRI,5.0,40.0,1.0,5.0,30.0,15.0,5.0,15.0,30.0,30.0,60.0,RR,59.7933584823933,
28.0,1.0,resp2,stim/right_resp_img.png,"[-0.5, 0]",right,stim/gold_coin.png,gold,,,,,training,,,gold,deval,,,,,0.0,0.0,0.0,0.0,4.0,1.0,9.0,1.0,,,,,,,,,0.0,training_resp,,635.9612203445286,11.885206741280854,9.0,16.0,right,gold,1.0,28.0,1.0,right,2021_Oct_12_1615,habits_v_MRI,5.0,40.0,1.0,5.0,30.0,15.0,5.0,15.0,30.0,30.0,60.0,RR,59.7933584823933,
28.0,1.0,resp2,stim/right_resp_img.png,"[-0.5, 0]",right,stim/gold_coin.png,gold,,,,,training,,,gold,deval,,,,,0.0,0.0,0.0,0.0,4.0,1.0,9.0,1.0,,,,,,,,,0.0,training_resp,,637.0981385521591,13.02206923160702,9.0,,right,gold,0.0,28.0,1.0,right,2021_Oct_12_1615,habits_v_MRI,5.0,40.0,1.0,5.0,30.0,15.0,5.0,15.0,30.0,30.0,60.0,RR,59.7933584823933,
28.0,1.0,resp2,stim/right_resp_img.png,"[-0.5, 0]",right,stim/gold_coin.png,gold,,,,,training,,,gold,deval,,,,,0.0,0.0,0.0,0.0,4.0,1.0,9.0,1.0,,,,,,,,,0.0,ITI_start,16.666666666666668,661.2576558897272,37.18047134857625,,,,,,28.0,1.0,right,2021_Oct_12_1615,habits_v_MRI,5.0,40.0,1.0,5.0,30.0,15.0,5.0,15.0,30.0,30.0,60.0,RR,59.7933584823933,
28.0,2.0,resp1_vs_resp2,,,,,gold,,,,,consumption,right,left,,,gold,silver,val,val,0.0,0.0,0.0,0.0,,,,,,,,,,,,,0.0,piggy_getting_full_msg,7.0,677.9408123604953,,,,,,,28.0,1.0,right,2021_Oct_12_1615,habits_v_MRI,5.0,40.0,1.0,5.0,30.0,15.0,5.0,15.0,30.0,30.0,60.0,RR,59.7933584823933,
28.0,2.0,resp1_vs_resp2,,,,,gold,,,,,consumption,right,left,,,gold,silver,val,val,0.0,0.0,0.0,0.0,,,,,,,,,,,,,0.0,instr_before_consumption,7.0,684.9460274772719,,,,,,,28.0,1.0,right,2021_Oct_12_1615,habits_v_MRI,5.0,40.0,1.0,5.0,30.0,15.0,5.0,15.0,30.0,30.0,60.0,RR,59.7933584823933,
28.0,2.0,resp1_vs_resp2,,,,,gold,,,,,consumption,right,left,,,gold,silver,val,val,0.0,0.0,0.0,0.0,,,,,,,,,,,,,0.0,consumption_start,15.0,691.9517619349062,0.0,,,,,,28.0,1.0,right,2021_Oct_12_1615,habits_v_MRI,5.0,40.0,1.0,5.0,30.0,15.0,5.0,15.0,30.0,30.0,60.0,RR,59.7933584823933,
28.0,2.0,resp1_vs_resp2,,,,,gold,,,,,consumption,right,left,,,gold,silver,val,val,0.0,0.0,0.0,0.0,,,,,,,,,,,,,0.0,consumption_resp,,693.4053336475044,1.45287876855582,,,right,gold,,28.0,1.0,right,2021_Oct_12_1615,habits_v_MRI,5.0,40.0,1.0,5.0,30.0,15.0,5.0,15.0,30.0,30.0,60.0,RR,59.7933584823933,
28.0,2.0,resp1_vs_resp2,,,,,gold,,,,,consumption,right,left,,,gold,silver,val,val,0.0,0.0,0.0,0.0,,,,,,,,,,,,,0.0,consumption_resp,,694.0734755452722,2.121350569650531,,,left,silver,,28.0,1.0,right,2021_Oct_12_1615,habits_v_MRI,5.0,40.0,1.0,5.0,30.0,15.0,5.0,15.0,30.0,30.0,60.0,RR,59.7933584823933,
28.0,2.0,resp1_vs_resp2,,,,,gold,,,,,consumption,right,left,,,gold,silver,val,val,0.0,0.0,0.0,0.0,,,,,,,,,,,,,0.0,consumption_resp,,694.5747592365369,2.622987330891192,,,right,gold,,28.0,1.0,right,2021_Oct_12_1615,habits_v_MRI,5.0,40.0,1.0,5.0,30.0,15.0,5.0,15.0,30.0,30.0,60.0,RR,59.7933584823933,
28.0,2.0,resp1_vs_resp2,,,,,gold,,,,,consumption,right,left,,,gold,silver,val,val,0.0,0.0,0.0,0.0,,,,,,,,,,,,,0.0,consumption_resp,,695.0096853841096,3.057625508867204,,,right,gold,,28.0,1.0,right,2021_Oct_12_1615,habits_v_MRI,5.0,40.0,1.0,5.0,30.0,15.0,5.0,15.0,30.0,30.0,60.0,RR,59.7933584823933,
28.0,2.0,resp1_vs_resp2,,,,,gold,,,,,consumption,right,left,,,gold,silver,val,val,0.0,0.0,0.0,0.0,,,,,,,,,,,,,0.0,consumption_resp,,695.3941638441756,3.442126256413758,,,right,gold,,28.0,1.0,right,2021_Oct_12_1615,habits_v_MRI,5.0,40.0,1.0,5.0,30.0,15.0,5.0,15.0,30.0,30.0,60.0,RR,59.7933584823933,
28.0,2.0,resp1_vs_resp2,,,,,gold,,,,,consumption,right,left,,,gold,silver,val,val,0.0,0.0,0.0,0.0,,,,,,,,,,,,,0.0,consumption_resp,,695.7956934822723,3.843640352599323,,,right,gold,,28.0,1.0,right,2021_Oct_12_1615,habits_v_MRI,5.0,40.0,1.0,5.0,30.0,15.0,5.0,15.0,30.0,30.0,60.0,RR,59.7933584823933,
28.0,2.0,resp1_vs_resp2,,,,,gold,,,,,consumption,right,left,,,gold,silver,val,val,0.0,0.0,0.0,0.0,,,,,,,,,,,,,0.0,consumption_resp,,696.0465219803154,4.094404042698443,,,right,gold,,28.0,1.0,right,2021_Oct_12_1615,habits_v_MRI,5.0,40.0,1.0,5.0,30.0,15.0,5.0,15.0,30.0,30.0,60.0,RR,59.7933584823933,
28.0,2.0,resp1_vs_resp2,,,,,gold,,,,,consumption,right,left,,,gold,silver,val,val,0.0,0.0,0.0,0.0,,,,,,,,,,,,,0.0,consumption_resp,,696.3475902527571,4.395382287912071,,,right,gold,,28.0,1.0,right,2021_Oct_12_1615,habits_v_MRI,5.0,40.0,1.0,5.0,30.0,15.0,5.0,15.0,30.0,30.0,60.0,RR,59.7933584823933,
28.0,2.0,resp1_vs_resp2,,,,,gold,,,,,consumption,right,left,,,gold,silver,val,val,0.0,0.0,0.0,0.0,,,,,,,,,,,,,0.0,consumption_resp,,696.8490111837164,4.89699646923691,,,right,gold,,28.0,1.0,right,2021_Oct_12_1615,habits_v_MRI,5.0,40.0,1.0,5.0,30.0,15.0,5.0,15.0,30.0,30.0,60.0,RR,59.7933584823933,
28.0,2.0,resp1_vs_resp2,,,,,gold,,,,,consumption,right,left,,,gold,silver,val,val,0.0,0.0,0.0,0.0,,,,,,,,,,,,,0.0,consumption_resp,,697.3339398670942,5.381916942074895,,,right,gold,,28.0,1.0,right,2021_Oct_12_1615,habits_v_MRI,5.0,40.0,1.0,5.0,30.0,15.0,5.0,15.0,30.0,30.0,60.0,RR,59.7933584823933,
28.0,2.0,resp1_vs_resp2,,,,,gold,,,,,consumption,right,left,,,gold,silver,val,val,0.0,0.0,0.0,0.0,,,,,,,,,,,,,0.0,instr_after_consumption,3.0,706.946287587285,14.994992209598422,,,,,,28.0,1.0,right,2021_Oct_12_1615,habits_v_MRI,5.0,40.0,1.0,5.0,30.0,15.0,5.0,15.0,30.0,30.0,60.0,RR,59.7933584823933,
28.0,2.0,resp1_vs_resp2,,,,,gold,,,,,consumption,right,left,,,gold,silver,val,val,0.0,0.0,0.0,0.0,,,,,,,,,,,,,0.0,rest_after_block,3.0,709.9567005187273,,,,,,,28.0,1.0,right,2021_Oct_12_1615,habits_v_MRI,5.0,40.0,1.0,5.0,30.0,15.0,5.0,15.0,30.0,30.0,60.0,RR,59.7933584823933,
28.0,0.0,resp1,stim/left_resp_img.png,"[0.5, 0]",left,stim/silver_coin.png,gold,,,,,training,,,silver,val,,,,,0.0,1.0,1.0,1.0,0.0,0.0,0.0,0.0,,,,,,,,,1.0,instr_before_block,6.0,0.0060819564387202,,,,,,,28.0,1.0,right,2021_Oct_12_1615,habits_v_MRI,5.0,40.0,1.0,5.0,30.0,15.0,5.0,15.0,30.0,30.0,60.0,RR,59.7933584823933,
28.0,0.0,resp1,stim/left_resp_img.png,"[0.5, 0]",left,stim/silver_coin.png,gold,,,,,training,,,silver,val,,,,,0.0,1.0,1.0,1.0,0.0,0.0,0.0,0.0,,,,,,,,,1.0,training_period_start,60.0,6.0459697945043445,0.0,10.0,21.0,,,,28.0,1.0,right,2021_Oct_12_1615,habits_v_MRI,5.0,40.0,1.0,5.0,30.0,15.0,5.0,15.0,30.0,30.0,60.0,RR,59.7933584823933,
28.0,0.0,resp1,stim/left_resp_img.png,"[0.5, 0]",left,stim/silver_coin.png,gold,,,,,training,,,silver,val,,,,,0.0,1.0,1.0,1.0,0.0,0.0,0.0,0.0,,,,,,,,,1.0,training_resp,,7.061391982249916,1.0353662529960277,10.0,,left,silver,0.0,28.0,1.0,right,2021_Oct_12_1615,habits_v_MRI,5.0,40.0,1.0,5.0,30.0,15.0,5.0,15.0,30.0,30.0,60.0,RR,59.7933584823933,
28.0,0.0,resp1,stim/left_resp_img.png,"[0.5, 0]",left,stim/silver_coin.png,gold,,,,,training,,,silver,val,,,,,0.0,1.0,1.0,1.0,0.0,0.0,0.0,0.0,,,,,,,,,1.0,training_resp,,7.612943892367184,1.5870727058500051,10.0,,left,silver,0.0,28.0,1.0,right,2021_Oct_12_1615,habits_v_MRI,5.0,40.0,1.0,5.0,30.0,15.0,5.0,15.0,30.0,30.0,60.0,RR,59.7933584823933,
28.0,0.0,resp1,stim/left_resp_img.png,"[0.5, 0]",left,stim/silver_coin.png,gold,,,,,training,,,silver,val,,,,,0.0,1.0,1.0,1.0,0.0,0.0,0.0,0.0,,,,,,,,,1.0,training_resp,,8.331961618736386,2.3059933660551906,10.0,,left,silver,0.0,28.0,1.0,right,2021_Oct_12_1615,habits_v_MRI,5.0,40.0,1.0,5.0,30.0,15.0,5.0,15.0,30.0,30.0,60.0,RR,59.7933584823933,
28.0,0.0,resp1,stim/left_resp_img.png,"[0.5, 0]",left,stim/silver_coin.png,gold,,,,,training,,,silver,val,,,,,0.0,1.0,1.0,1.0,0.0,0.0,0.0,0.0,,,,,,,,,1.0,training_resp,,9.067419100552796,3.0415751859545708,10.0,,left,silver,0.0,28.0,1.0,right,2021_Oct_12_1615,habits_v_MRI,5.0,40.0,1.0,5.0,30.0,15.0,5.0,15.0,30.0,30.0,60.0,RR,59.7933584823933,
28.0,0.0,resp1,stim/left_resp_img.png,"[0.5, 0]",left,stim/silver_coin.png,gold,,,,,training,,,silver,val,,,,,0.0,1.0,1.0,1.0,0.0,0.0,0.0,0.0,,,,,,,,,1.0,training_resp,,9.83639742899686,3.810605418868363,10.0,,left,silver,0.0,28.0,1.0,right,2021_Oct_12_1615,habits_v_MRI,5.0,40.0,1.0,5.0,30.0,15.0,5.0,15.0,30.0,30.0,60.0,RR,59.7933584823933,
28.0,0.0,resp1,stim/left_resp_img.png,"[0.5, 0]",left,stim/silver_coin.png,gold,,,,,training,,,silver,val,,,,,0.0,1.0,1.0,1.0,0.0,0.0,0.0,0.0,,,,,,,,,1.0,training_resp,,10.52189225703478,4.496087050065398,10.0,,left,silver,0.0,28.0,1.0,right,2021_Oct_12_1615,habits_v_MRI,5.0,40.0,1.0,5.0,30.0,15.0,5.0,15.0,30.0,30.0,60.0,RR,59.7933584823933,
28.0,0.0,resp1,stim/left_resp_img.png,"[0.5, 0]",left,stim/silver_coin.png,gold,,,,,training,,,silver,val,,,,,0.0,1.0,1.0,1.0,0.0,0.0,0.0,0.0,,,,,,,,,1.0,training_resp,,11.157165491953492,5.131386091001332,10.0,,left,silver,0.0,28.0,1.0,right,2021_Oct_12_1615,habits_v_MRI,5.0,40.0,1.0,5.0,30.0,15.0,5.0,15.0,30.0,30.0,60.0,RR,59.7933584823933,
28.0,0.0,resp1,stim/left_resp_img.png,"[0.5, 0]",left,stim/silver_coin.png,gold,,,,,training,,,silver,val,,,,,0.0,1.0,1.0,1.0,0.0,0.0,0.0,0.0,,,,,,,,,1.0,training_resp,,11.77572888880968,5.749940104782581,10.0,,left,silver,0.0,28.0,1.0,right,2021_Oct_12_1615,habits_v_MRI,5.0,40.0,1.0,5.0,30.0,15.0,5.0,15.0,30.0,30.0,60.0,RR,59.7933584823933,
28.0,0.0,resp1,stim/left_resp_img.png,"[0.5, 0]",left,stim/silver_coin.png,gold,,,,,training,,,silver,val,,,,,0.0,1.0,1.0,1.0,0.0,0.0,0.0,0.0,,,,,,,,,1.0,training_resp,,11.959623317234218,5.933821043930948,10.0,,left,silver,0.0,28.0,1.0,right,2021_Oct_12_1615,habits_v_MRI,5.0,40.0,1.0,5.0,30.0,15.0,5.0,15.0,30.0,30.0,60.0,RR,59.7933584823933,
28.0,0.0,resp1,stim/left_resp_img.png,"[0.5, 0]",left,stim/silver_coin.png,gold,,,,,training,,,silver,val,,,,,0.0,1.0,1.0,1.0,0.0,0.0,0.0,0.0,,,,,,,,,1.0,training_resp,,12.59504786785692,6.569194862619042,10.0,,left,silver,0.0,28.0,1.0,right,2021_Oct_12_1615,habits_v_MRI,5.0,40.0,1.0,5.0,30.0,15.0,5.0,15.0,30.0,30.0,60.0,RR,59.7933584823933,
28.0,0.0,resp1,stim/left_resp_img.png,"[0.5, 0]",left,stim/silver_coin.png,gold,,,,,training,,,silver,val,,,,,0.0,1.0,1.0,1.0,0.0,0.0,0.0,0.0,,,,,,,,,1.0,training_resp,,13.347369436174631,7.32147185690701,10.0,,left,silver,0.0,28.0,1.0,right,2021_Oct_12_1615,habits_v_MRI,5.0,40.0,1.0,5.0,30.0,15.0,5.0,15.0,30.0,30.0,60.0,RR,59.7933584823933,
28.0,0.0,resp1,stim/left_resp_img.png,"[0.5, 0]",left,stim/silver_coin.png,gold,,,,,training,,,silver,val,,,,,0.0,1.0,1.0,1.0,0.0,0.0,0.0,0.0,,,,,,,,,1.0,training_resp,,13.53121987823397,7.505362180061638,10.0,,left,silver,0.0,28.0,1.0,right,2021_Oct_12_1615,habits_v_MRI,5.0,40.0,1.0,5.0,30.0,15.0,5.0,15.0,30.0,30.0,60.0,RR,59.7933584823933,
28.0,0.0,resp1,stim/left_resp_img.png,"[0.5, 0]",left,stim/silver_coin.png,gold,,,,,training,,,silver,val,,,,,0.0,1.0,1.0,1.0,0.0,0.0,0.0,0.0,,,,,,,,,1.0,training_resp,,14.04952982161194,8.023703208193183,10.0,,left,silver,0.0,28.0,1.0,right,2021_Oct_12_1615,habits_v_MRI,5.0,40.0,1.0,5.0,30.0,15.0,5.0,15.0,30.0,30.0,60.0,RR,59.7933584823933,
28.0,0.0,resp1,stim/left_resp_img.png,"[0.5, 0]",left,stim/silver_coin.png,gold,,,,,training,,,silver,val,,,,,0.0,1.0,1.0,1.0,0.0,0.0,0.0,0.0,,,,,,,,,1.0,training_resp,,14.250200361013412,8.22438401170075,10.0,,left,silver,0.0,28.0,1.0,right,2021_Oct_12_1615,habits_v_MRI,5.0,40.0,1.0,5.0,30.0,15.0,5.0,15.0,30.0,30.0,60.0,RR,59.7933584823933,
28.0,0.0,resp1,stim/left_resp_img.png,"[0.5, 0]",left,stim/silver_coin.png,gold,,,,,training,,,silver,val,,,,,0.0,1.0,1.0,1.0,0.0,0.0,0.0,0.0,,,,,,,,,1.0,training_resp,,14.684798364527524,8.658966472372413,10.0,,left,silver,0.0,28.0,1.0,right,2021_Oct_12_1615,habits_v_MRI,5.0,40.0,1.0,5.0,30.0,15.0,5.0,15.0,30.0,30.0,60.0,RR,59.7933584823933,
28.0,0.0,resp1,stim/left_resp_img.png,"[0.5, 0]",left,stim/silver_coin.png,gold,,,,,training,,,silver,val,,,,,0.0,1.0,1.0,1.0,0.0,0.0,0.0,0.0,,,,,,,,,1.0,training_resp,,14.868930909782648,8.842906940728426,10.0,,left,silver,0.0,28.0,1.0,right,2021_Oct_12_1615,habits_v_MRI,5.0,40.0,1.0,5.0,30.0,15.0,5.0,15.0,30.0,30.0,60.0,RR,59.7933584823933,
28.0,0.0,resp1,stim/left_resp_img.png,"[0.5, 0]",left,stim/silver_coin.png,gold,,,,,training,,,silver,val,,,,,0.0,1.0,1.0,1.0,0.0,0.0,0.0,0.0,,,,,,,,,1.0,training_resp,,15.370250964537265,9.344477135688066,10.0,,left,silver,0.0,28.0,1.0,right,2021_Oct_12_1615,habits_v_MRI,5.0,40.0,1.0,5.0,30.0,15.0,5.0,15.0,30.0,30.0,60.0,RR,59.7933584823933,
28.0,0.0,resp1,stim/left_resp_img.png,"[0.5, 0]",left,stim/silver_coin.png,gold,,,,,training,,,silver,val,,,,,0.0,1.0,1.0,1.0,0.0,0.0,0.0,0.0,,,,,,,,,1.0,training_resp,,15.503968960605562,9.478204808197916,10.0,,left,silver,0.0,28.0,1.0,right,2021_Oct_12_1615,habits_v_MRI,5.0,40.0,1.0,5.0,30.0,15.0,5.0,15.0,30.0,30.0,60.0,RR,59.7933584823933,
28.0,0.0,resp1,stim/left_resp_img.png,"[0.5, 0]",left,stim/silver_coin.png,gold,,,,,training,,,silver,val,,,,,0.0,1.0,1.0,1.0,0.0,0.0,0.0,0.0,,,,,,,,,1.0,training_resp,,16.055705030448735,10.029926509596407,10.0,,left,silver,0.0,28.0,1.0,right,2021_Oct_12_1615,habits_v_MRI,5.0,40.0,1.0,5.0,30.0,15.0,5.0,15.0,30.0,30.0,60.0,RR,59.7933584823933,
28.0,0.0,resp1,stim/left_resp_img.png,"[0.5, 0]",left,stim/silver_coin.png,gold,,,,,training,,,silver,val,,,,,0.0,1.0,1.0,1.0,0.0,0.0,0.0,0.0,,,,,,,,,1.0,training_resp,,16.741109537892044,10.715334828943014,10.0,,left,silver,0.0,28.0,1.0,right,2021_Oct_12_1615,habits_v_MRI,5.0,40.0,1.0,5.0,30.0,15.0,5.0,15.0,30.0,30.0,60.0,RR,59.7933584823933,
28.0,0.0,resp1,stim/left_resp_img.png,"[0.5, 0]",left,stim/silver_coin.png,gold,,,,,training,,,silver,val,,,,,0.0,1.0,1.0,1.0,0.0,0.0,0.0,0.0,,,,,,,,,1.0,training_resp,,16.908299113623798,10.88253320287913,10.0,16.0,left,silver,1.0,28.0,1.0,right,2021_Oct_12_1615,habits_v_MRI,5.0,40.0,1.0,5.0,30.0,15.0,5.0,15.0,30.0,30.0,60.0,RR,59.7933584823933,
28.0,0.0,resp1,stim/left_resp_img.png,"[0.5, 0]",left,stim/silver_coin.png,gold,,,,,training,,,silver,val,,,,,0.0,1.0,1.0,1.0,0.0,0.0,0.0,0.0,,,,,,,,,1.0,ITI_start,20.0,65.69438375066966,59.66732080467045,,,,,,28.0,1.0,right,2021_Oct_12_1615,habits_v_MRI,5.0,40.0,1.0,5.0,30.0,15.0,5.0,15.0,30.0,30.0,60.0,RR,59.7933584823933,
28.0,1.0,resp2,stim/right_resp_img.png,"[-0.5, 0]",right,stim/gold_coin.png,gold,,,,,training,,,gold,deval,,,,,0.0,1.0,1.0,1.0,0.0,1.0,1.0,1.0,,,,,,,,,1.0,training_period_start,52.5,85.72731018252671,0.0,11.0,6.0,,,,28.0,1.0,right,2021_Oct_12_1615,habits_v_MRI,5.0,40.0,1.0,5.0,30.0,15.0,5.0,15.0,30.0,30.0,60.0,RR,59.7933584823933,
28.0,1.0,resp2,stim/right_resp_img.png,"[-0.5, 0]",right,stim/gold_coin.png,gold,,,,,training,,,gold,deval,,,,,0.0,1.0,1.0,1.0,0.0,1.0,1.0,1.0,,,,,,,,,1.0,training_resp,,86.70812768116593,1.0011204993352294,11.0,,right,gold,0.0,28.0,1.0,right,2021_Oct_12_1615,habits_v_MRI,5.0,40.0,1.0,5.0,30.0,15.0,5.0,15.0,30.0,30.0,60.0,RR,59.7933584823933,
28.0,1.0,resp2,stim/right_resp_img.png,"[-0.5, 0]",right,stim/gold_coin.png,gold,,,,,training,,,gold,deval,,,,,0.0,1.0,1.0,1.0,0.0,1.0,1.0,1.0,,,,,,,,,1.0,training_resp,,86.97560472786427,1.2686125012114644,11.0,,right,gold,0.0,28.0,1.0,right,2021_Oct_12_1615,habits_v_MRI,5.0,40.0,1.0,5.0,30.0,15.0,5.0,15.0,30.0,30.0,60.0,RR,59.7933584823933,
28.0,1.0,resp2,stim/right_resp_img.png,"[-0.5, 0]",right,stim/gold_coin.png,gold,,,,,training,,,gold,deval,,,,,0.0,1.0,1.0,1.0,0.0,1.0,1.0,1.0,,,,,,,,,1.0,training_resp,,87.56112116761506,1.8540867138653996,11.0,,right,gold,0.0,28.0,1.0,right,2021_Oct_12_1615,habits_v_MRI,5.0,40.0,1.0,5.0,30.0,15.0,5.0,15.0,30.0,30.0,60.0,RR,59.7933584823933,
28.0,1.0,resp2,stim/right_resp_img.png,"[-0.5, 0]",right,stim/gold_coin.png,gold,,,,,training,,,gold,deval,,,,,0.0,1.0,1.0,1.0,0.0,1.0,1.0,1.0,,,,,,,,,1.0,training_resp,,87.74527277424932,2.0381506392732263,11.0,,right,gold,0.0,28.0,1.0,right,2021_Oct_12_1615,habits_v_MRI,5.0,40.0,1.0,5.0,30.0,15.0,5.0,15.0,30.0,30.0,60.0,RR,59.7933584823933,
28.0,1.0,resp2,stim/right_resp_img.png,"[-0.5, 0]",right,stim/gold_coin.png,gold,,,,,training,,,gold,deval,,,,,0.0,1.0,1.0,1.0,0.0,1.0,1.0,1.0,,,,,,,,,1.0,training_resp,,88.36345143057406,2.656353342346847,11.0,,right,gold,0.0,28.0,1.0,right,2021_Oct_12_1615,habits_v_MRI,5.0,40.0,1.0,5.0,30.0,15.0,5.0,15.0,30.0,30.0,60.0,RR,59.7933584823933,
28.0,1.0,resp2,stim/right_resp_img.png,"[-0.5, 0]",right,stim/gold_coin.png,gold,,,,,training,,,gold,deval,,,,,0.0,1.0,1.0,1.0,0.0,1.0,1.0,1.0,,,,,,,,,1.0,training_resp,,88.5641562808305,2.857040890492499,11.0,24.0,right,gold,1.0,28.0,1.0,right,2021_Oct_12_1615,habits_v_MRI,5.0,40.0,1.0,5.0,30.0,15.0,5.0,15.0,30.0,30.0,60.0,RR,59.7933584823933,
28.0,1.0,resp2,stim/right_resp_img.png,"[-0.5, 0]",right,stim/gold_coin.png,gold,,,,,training,,,gold,deval,,,,,0.0,1.0,1.0,1.0,0.0,1.0,1.0,1.0,,,,,,,,,1.0,ITI_start,23.333333333333336,137.88525102101266,52.17688932828605,,,,,,28.0,1.0,right,2021_Oct_12_1615,habits_v_MRI,5.0,40.0,1.0,5.0,30.0,15.0,5.0,15.0,30.0,30.0,60.0,RR,59.7933584823933,
28.0,0.0,resp1,stim/left_resp_img.png,"[0.5, 0]",left,stim/silver_coin.png,gold,,,,,training,,,silver,val,,,,,0.0,1.0,1.0,1.0,1.0,0.0,2.0,0.0,,,,,,,,,1.0,training_period_start,30.0,161.26163789909333,0.0,12.0,12.0,,,,28.0,1.0,right,2021_Oct_12_1615,habits_v_MRI,5.0,40.0,1.0,5.0,30.0,15.0,5.0,15.0,30.0,30.0,60.0,RR,59.7933584823933,
28.0,0.0,resp1,stim/left_resp_img.png,"[0.5, 0]",left,stim/silver_coin.png,gold,,,,,training,,,silver,val,,,,,0.0,1.0,1.0,1.0,1.0,0.0,2.0,0.0,,,,,,,,,1.0,training_resp,,162.09263341408223,0.8509017517790198,12.0,,left,silver,0.0,28.0,1.0,right,2021_Oct_12_1615,habits_v_MRI,5.0,40.0,1.0,5.0,30.0,15.0,5.0,15.0,30.0,30.0,60.0,RR,59.7933584823933,
28.0,0.0,resp1,stim/left_resp_img.png,"[0.5, 0]",left,stim/silver_coin.png,gold,,,,,training,,,silver,val,,,,,0.0,1.0,1.0,1.0,1.0,0.0,2.0,0.0,,,,,,,,,1.0,training_resp,,162.82814045529813,1.5864785853773355,12.0,,left,silver,0.0,28.0,1.0,right,2021_Oct_12_1615,habits_v_MRI,5.0,40.0,1.0,5.0,30.0,15.0,5.0,15.0,30.0,30.0,60.0,RR,59.7933584823933,
28.0,0.0,resp1,stim/left_resp_img.png,"[0.5, 0]",left,stim/silver_coin.png,gold,,,,,training,,,silver,val,,,,,0.0,1.0,1.0,1.0,1.0,0.0,2.0,0.0,,,,,,,,,1.0,training_resp,,163.04540881235152,1.8037484092637897,12.0,,left,silver,0.0,28.0,1.0,right,2021_Oct_12_1615,habits_v_MRI,5.0,40.0,1.0,5.0,30.0,15.0,5.0,15.0,30.0,30.0,60.0,RR,59.7933584823933,
28.0,0.0,resp1,stim/left_resp_img.png,"[0.5, 0]",left,stim/silver_coin.png,gold,,,,,training,,,silver,val,,,,,0.0,1.0,1.0,1.0,1.0,0.0,2.0,0.0,,,,,,,,,1.0,training_resp,,163.1958603989333,1.9542152443900704,12.0,,left,silver,0.0,28.0,1.0,right,2021_Oct_12_1615,habits_v_MRI,5.0,40.0,1.0,5.0,30.0,15.0,5.0,15.0,30.0,30.0,60.0,RR,59.7933584823933,
28.0,0.0,resp1,stim/left_resp_img.png,"[0.5, 0]",left,stim/silver_coin.png,gold,,,,,training,,,silver,val,,,,,0.0,1.0,1.0,1.0,1.0,0.0,2.0,0.0,,,,,,,,,1.0,training_resp,,163.8981876410544,2.656419323757291,12.0,,left,silver,0.0,28.0,1.0,right,2021_Oct_12_1615,habits_v_MRI,5.0,40.0,1.0,5.0,30.0,15.0,5.0,15.0,30.0,30.0,60.0,RR,59.7933584823933,
28.0,0.0,resp1,stim/left_resp_img.png,"[0.5, 0]",left,stim/silver_coin.png,gold,,,,,training,,,silver,val,,,,,0.0,1.0,1.0,1.0,1.0,0.0,2.0,0.0,,,,,,,,,1.0,training_resp,,164.132234162651,2.89048314653337,12.0,,left,silver,0.0,28.0,1.0,right,2021_Oct_12_1615,habits_v_MRI,5.0,40.0,1.0,5.0,30.0,15.0,5.0,15.0,30.0,30.0,60.0,RR,59.7933584823933,
28.0,0.0,resp1,stim/left_resp_img.png,"[0.5, 0]",left,stim/silver_coin.png,gold,,,,,training,,,silver,val,,,,,0.0,1.0,1.0,1.0,1.0,0.0,2.0,0.0,,,,,,,,,1.0,training_resp,,164.85106245055795,3.6093923710286617,12.0,,left,silver,0.0,28.0,1.0,right,2021_Oct_12_1615,habits_v_MRI,5.0,40.0,1.0,5.0,30.0,15.0,5.0,15.0,30.0,30.0,60.0,RR,59.7933584823933,
28.0,0.0,resp1,stim/left_resp_img.png,"[0.5, 0]",left,stim/silver_coin.png,gold,,,,,training,,,silver,val,,,,,0.0,1.0,1.0,1.0,1.0,0.0,2.0,0.0,,,,,,,,,1.0,training_resp,,165.03492726106197,3.793235774151981,12.0,,left,silver,0.0,28.0,1.0,right,2021_Oct_12_1615,habits_v_MRI,5.0,40.0,1.0,5.0,30.0,15.0,5.0,15.0,30.0,30.0,60.0,RR,59.7933584823933,
28.0,0.0,resp1,stim/left_resp_img.png,"[0.5, 0]",left,stim/silver_coin.png,gold,,,,,training,,,silver,val,,,,,0.0,1.0,1.0,1.0,1.0,0.0,2.0,0.0,,,,,,,,,1.0,training_resp,,165.78764031548053,4.545655286870897,12.0,,left,silver,0.0,28.0,1.0,right,2021_Oct_12_1615,habits_v_MRI,5.0,40.0,1.0,5.0,30.0,15.0,5.0,15.0,30.0,30.0,60.0,RR,59.7933584823933,
28.0,0.0,resp1,stim/left_resp_img.png,"[0.5, 0]",left,stim/silver_coin.png,gold,,,,,training,,,silver,val,,,,,0.0,1.0,1.0,1.0,1.0,0.0,2.0,0.0,,,,,,,,,1.0,training_resp,,165.95454456098378,4.712829614058137,12.0,,left,silver,0.0,28.0,1.0,right,2021_Oct_12_1615,habits_v_MRI,5.0,40.0,1.0,5.0,30.0,15.0,5.0,15.0,30.0,30.0,60.0,RR,59.7933584823933,
28.0,0.0,resp1,stim/left_resp_img.png,"[0.5, 0]",left,stim/silver_coin.png,gold,,,,,training,,,silver,val,,,,,0.0,1.0,1.0,1.0,1.0,0.0,2.0,0.0,,,,,,,,,1.0,training_resp,,166.65736739244312,5.415593503043056,12.0,,left,silver,0.0,28.0,1.0,right,2021_Oct_12_1615,habits_v_MRI,5.0,40.0,1.0,5.0,30.0,15.0,5.0,15.0,30.0,30.0,60.0,RR,59.7933584823933,
28.0,0.0,resp1,stim/left_resp_img.png,"[0.5, 0]",left,stim/silver_coin.png,gold,,,,,training,,,silver,val,,,,,0.0,1.0,1.0,1.0,1.0,0.0,2.0,0.0,,,,,,,,,1.0,training_resp,,166.8912177309394,5.649118336848915,12.0,11.0,left,silver,1.0,28.0,1.0,right,2021_Oct_12_1615,habits_v_MRI,5.0,40.0,1.0,5.0,30.0,15.0,5.0,15.0,30.0,30.0,60.0,RR,59.7933584823933,
28.0,0.0,resp1,stim/left_resp_img.png,"[0.5, 0]",left,stim/silver_coin.png,gold,,,,,training,,,silver,val,,,,,0.0,1.0,1.0,1.0,1.0,0.0,2.0,0.0,,,,,,,,,1.0,ITI_start,15.0,190.91644905228168,29.67362533602864,,,,,,28.0,1.0,right,2021_Oct_12_1615,habits_v_MRI,5.0,40.0,1.0,5.0,30.0,15.0,5.0,15.0,30.0,30.0,60.0,RR,59.7933584823933,
28.0,1.0,resp2,stim/right_resp_img.png,"[-0.5, 0]",right,stim/gold_coin.png,gold,,,,,training,,,gold,deval,,,,,0.0,1.0,1.0,1.0,1.0,1.0,3.0,1.0,,,,,,,,,1.0,training_period_start,60.0,205.9505326403305,0.0,13.0,12.0,,,,28.0,1.0,right,2021_Oct_12_1615,habits_v_MRI,5.0,40.0,1.0,5.0,30.0,15.0,5.0,15.0,30.0,30.0,60.0,RR,59.7933584823933,
28.0,1.0,resp2,stim/right_resp_img.png,"[-0.5, 0]",right,stim/gold_coin.png,gold,,,,,training,,,gold,deval,,,,,0.0,1.0,1.0,1.0,1.0,1.0,3.0,1.0,,,,,,,,,1.0,training_resp,,207.29963341075927,1.369080905802548,13.0,,right,gold,0.0,28.0,1.0,right,2021_Oct_12_1615,habits_v_MRI,5.0,40.0,1.0,5.0,30.0,15.0,5.0,15.0,30.0,30.0,60.0,RR,59.7933584823933,
28.0,1.0,resp2,stim/right_resp_img.png,"[-0.5, 0]",right,stim/gold_coin.png,gold,,,,,training,,,gold,deval,,,,,0.0,1.0,1.0,1.0,1.0,1.0,3.0,1.0,,,,,,,,,1.0,training_resp,,207.4499826543033,1.5194949572905898,13.0,,right,gold,0.0,28.0,1.0,right,2021_Oct_12_1615,habits_v_MRI,5.0,40.0,1.0,5.0,30.0,15.0,5.0,15.0,30.0,30.0,60.0,RR,59.7933584823933,
28.0,1.0,resp2,stim/right_resp_img.png,"[-0.5, 0]",right,stim/gold_coin.png,gold,,,,,training,,,gold,deval,,,,,0.0,1.0,1.0,1.0,1.0,1.0,3.0,1.0,,,,,,,,,1.0,training_resp,,208.3361606318504,2.405562966130674,13.0,,right,gold,0.0,28.0,1.0,right,2021_Oct_12_1615,habits_v_MRI,5.0,40.0,1.0,5.0,30.0,15.0,5.0,15.0,30.0,30.0,60.0,RR,59.7933584823933,
28.0,1.0,resp2,stim/right_resp_img.png,"[-0.5, 0]",right,stim/gold_coin.png,gold,,,,,training,,,gold,deval,,,,,0.0,1.0,1.0,1.0,1.0,1.0,3.0,1.0,,,,,,,,,1.0,training_resp,,209.37272157613188,3.4422115916386247,13.0,,right,gold,0.0,28.0,1.0,right,2021_Oct_12_1615,habits_v_MRI,5.0,40.0,1.0,5.0,30.0,15.0,5.0,15.0,30.0,30.0,60.0,RR,59.7933584823933,
28.0,1.0,resp2,stim/right_resp_img.png,"[-0.5, 0]",right,stim/gold_coin.png,gold,,,,,training,,,gold,deval,,,,,0.0,1.0,1.0,1.0,1.0,1.0,3.0,1.0,,,,,,,,,1.0,training_resp,,209.64009510632604,3.709644357673824,13.0,,right,gold,0.0,28.0,1.0,right,2021_Oct_12_1615,habits_v_MRI,5.0,40.0,1.0,5.0,30.0,15.0,5.0,15.0,30.0,30.0,60.0,RR,59.7933584823933,
28.0,1.0,resp2,stim/right_resp_img.png,"[-0.5, 0]",right,stim/gold_coin.png,gold,,,,,training,,,gold,deval,,,,,0.0,1.0,1.0,1.0,1.0,1.0,3.0,1.0,,,,,,,,,1.0,training_resp,,210.40912240650505,4.478664914146066,13.0,,right,gold,0.0,28.0,1.0,right,2021_Oct_12_1615,habits_v_MRI,5.0,40.0,1.0,5.0,30.0,15.0,5.0,15.0,30.0,30.0,60.0,RR,59.7933584823933,
28.0,1.0,resp2,stim/right_resp_img.png,"[-0.5, 0]",right,stim/gold_coin.png,gold,,,,,training,,,gold,deval,,,,,0.0,1.0,1.0,1.0,1.0,1.0,3.0,1.0,,,,,,,,,1.0,training_resp,,210.6766938790679,4.7462437171489,13.0,,right,gold,0.0,28.0,1.0,right,2021_Oct_12_1615,habits_v_MRI,5.0,40.0,1.0,5.0,30.0,15.0,5.0,15.0,30.0,30.0,60.0,RR,59.7933584823933,
28.0,1.0,resp2,stim/right_resp_img.png,"[-0.5, 0]",right,stim/gold_coin.png,gold,,,,,training,,,gold,deval,,,,,0.0,1.0,1.0,1.0,1.0,1.0,3.0,1.0,,,,,,,,,1.0,training_resp,,211.4791138758883,5.548652570694685,13.0,,right,gold,0.0,28.0,1.0,right,2021_Oct_12_1615,habits_v_MRI,5.0,40.0,1.0,5.0,30.0,15.0,5.0,15.0,30.0,30.0,60.0,RR,59.7933584823933,
28.0,1.0,resp2,stim/right_resp_img.png,"[-0.5, 0]",right,stim/gold_coin.png,gold,,,,,training,,,gold,deval,,,,,0.0,1.0,1.0,1.0,1.0,1.0,3.0,1.0,,,,,,,,,1.0,training_resp,,211.69645994342864,5.766012420877814,13.0,,right,gold,0.0,28.0,1.0,right,2021_Oct_12_1615,habits_v_MRI,5.0,40.0,1.0,5.0,30.0,15.0,5.0,15.0,30.0,30.0,60.0,RR,59.7933584823933,
28.0,1.0,resp2,stim/right_resp_img.png,"[-0.5, 0]",right,stim/gold_coin.png,gold,,,,,training,,,gold,deval,,,,,0.0,1.0,1.0,1.0,1.0,1.0,3.0,1.0,,,,,,,,,1.0,training_resp,,212.54924287833276,6.618714713491499,13.0,,right,gold,0.0,28.0,1.0,right,2021_Oct_12_1615,habits_v_MRI,5.0,40.0,1.0,5.0,30.0,15.0,5.0,15.0,30.0,30.0,60.0,RR,59.7933584823933,
28.0,1.0,resp2,stim/right_resp_img.png,"[-0.5, 0]",right,stim/gold_coin.png,gold,,,,,training,,,gold,deval,,,,,0.0,1.0,1.0,1.0,1.0,1.0,3.0,1.0,,,,,,,,,1.0,training_resp,,212.86685354355723,6.936343266628683,13.0,,right,gold,0.0,28.0,1.0,right,2021_Oct_12_1615,habits_v_MRI,5.0,40.0,1.0,5.0,30.0,15.0,5.0,15.0,30.0,30.0,60.0,RR,59.7933584823933,
28.0,1.0,resp2,stim/right_resp_img.png,"[-0.5, 0]",right,stim/gold_coin.png,gold,,,,,training,,,gold,deval,,,,,0.0,1.0,1.0,1.0,1.0,1.0,3.0,1.0,,,,,,,,,1.0,training_resp,,213.61935369949788,7.688764245249331,13.0,9.0,right,gold,1.0,28.0,1.0,right,2021_Oct_12_1615,habits_v_MRI,5.0,40.0,1.0,5.0,30.0,15.0,5.0,15.0,30.0,30.0,60.0,RR,59.7933584823933,
28.0,1.0,resp2,stim/right_resp_img.png,"[-0.5, 0]",right,stim/gold_coin.png,gold,,,,,training,,,gold,deval,,,,,0.0,1.0,1.0,1.0,1.0,1.0,3.0,1.0,,,,,,,,,1.0,ITI_start,25.0,265.59844396915287,59.666748384945095,,,,,,28.0,1.0,right,2021_Oct_12_1615,habits_v_MRI,5.0,40.0,1.0,5.0,30.0,15.0,5.0,15.0,30.0,30.0,60.0,RR,59.7933584823933,
28.0,0.0,resp1,stim/left_resp_img.png,"[0.5, 0]",left,stim/silver_coin.png,gold,,,,,training,,,silver,val,,,,,0.0,1.0,1.0,1.0,2.0,0.0,4.0,0.0,,,,,,,,,1.0,training_period_start,45.0,290.63005606643856,0.0,14.0,20.0,,,,28.0,1.0,right,2021_Oct_12_1615,habits_v_MRI,5.0,40.0,1.0,5.0,30.0,15.0,5.0,15.0,30.0,30.0,60.0,RR,59.7933584823933,
28.0,0.0,resp1,stim/left_resp_img.png,"[0.5, 0]",left,stim/silver_coin.png,gold,,,,,training,,,silver,val,,,,,0.0,1.0,1.0,1.0,2.0,0.0,4.0,0.0,,,,,,,,,1.0,training_resp,,291.9459433145821,1.335794072598219,14.0,,left,silver,0.0,28.0,1.0,right,2021_Oct_12_1615,habits_v_MRI,5.0,40.0,1.0,5.0,30.0,15.0,5.0,15.0,30.0,30.0,60.0,RR,59.7933584823933,
28.0,0.0,resp1,stim/left_resp_img.png,"[0.5, 0]",left,stim/silver_coin.png,gold,,,,,training,,,silver,val,,,,,0.0,1.0,1.0,1.0,2.0,0.0,4.0,0.0,,,,,,,,,1.0,training_resp,,292.68137938994914,2.071354485116899,14.0,,left,silver,0.0,28.0,1.0,right,2021_Oct_12_1615,habits_v_MRI,5.0,40.0,1.0,5.0,30.0,15.0,5.0,15.0,30.0,30.0,60.0,RR,59.7933584823933,
28.0,0.0,resp1,stim/left_resp_img.png,"[0.5, 0]",left,stim/silver_coin.png,gold,,,,,training,,,silver,val,,,,,0.0,1.0,1.0,1.0,2.0,0.0,4.0,0.0,,,,,,,,,1.0,training_resp,,292.8319520875812,2.2219122275710106,14.0,,left,silver,0.0,28.0,1.0,right,2021_Oct_12_1615,habits_v_MRI,5.0,40.0,1.0,5.0,30.0,15.0,5.0,15.0,30.0,30.0,60.0,RR,59.7933584823933,
28.0,0.0,resp1,stim/left_resp_img.png,"[0.5, 0]",left,stim/silver_coin.png,gold,,,,,training,,,silver,val,,,,,0.0,1.0,1.0,1.0,2.0,0.0,4.0,0.0,,,,,,,,,1.0,training_resp,,293.7012923713773,3.0913372598588467,14.0,,left,silver,0.0,28.0,1.0,right,2021_Oct_12_1615,habits_v_MRI,5.0,40.0,1.0,5.0,30.0,15.0,5.0,15.0,30.0,30.0,60.0,RR,59.7933584823933,
28.0,0.0,resp1,stim/left_resp_img.png,"[0.5, 0]",left,stim/silver_coin.png,gold,,,,,training,,,silver,val,,,,,0.0,1.0,1.0,1.0,2.0,0.0,4.0,0.0,,,,,,,,,1.0,training_resp,,294.55389026738703,3.9439650662243366,14.0,,left,silver,0.0,28.0,1.0,right,2021_Oct_12_1615,habits_v_MRI,5.0,40.0,1.0,5.0,30.0,15.0,5.0,15.0,30.0,30.0,60.0,RR,59.7933584823933,
28.0,0.0,resp1,stim/left_resp_img.png,"[0.5, 0]",left,stim/silver_coin.png,gold,,,,,training,,,silver,val,,,,,0.0,1.0,1.0,1.0,2.0,0.0,4.0,0.0,,,,,,,,,1.0,training_resp,,294.77119938563555,4.161306441761553,14.0,,left,silver,0.0,28.0,1.0,right,2021_Oct_12_1615,habits_v_MRI,5.0,40.0,1.0,5.0,30.0,15.0,5.0,15.0,30.0,30.0,60.0,RR,59.7933584823933,
28.0,0.0,resp1,stim/left_resp_img.png,"[0.5, 0]",left,stim/silver_coin.png,gold,,,,,training,,,silver,val,,,,,0.0,1.0,1.0,1.0,2.0,0.0,4.0,0.0,,,,,,,,,1.0,training_resp,,295.12226462271065,4.512350271455944,14.0,,left,silver,0.0,28.0,1.0,right,2021_Oct_12_1615,habits_v_MRI,5.0,40.0,1.0,5.0,30.0,15.0,5.0,15.0,30.0,30.0,60.0,RR,59.7933584823933,
28.0,0.0,resp1,stim/left_resp_img.png,"[0.5, 0]",left,stim/silver_coin.png,gold,,,,,training,,,silver,val,,,,,0.0,1.0,1.0,1.0,2.0,0.0,4.0,0.0,,,,,,,,,1.0,training_resp,,295.7575903488323,5.147675705142319,14.0,,left,silver,0.0,28.0,1.0,right,2021_Oct_12_1615,habits_v_MRI,5.0,40.0,1.0,5.0,30.0,15.0,5.0,15.0,30.0,30.0,60.0,RR,59.7933584823933,
28.0,0.0,resp1,stim/left_resp_img.png,"[0.5, 0]",left,stim/silver_coin.png,gold,,,,,training,,,silver,val,,,,,0.0,1.0,1.0,1.0,2.0,0.0,4.0,0.0,,,,,,,,,1.0,training_resp,,296.0919457478449,5.482054270803928,14.0,,left,silver,0.0,28.0,1.0,right,2021_Oct_12_1615,habits_v_MRI,5.0,40.0,1.0,5.0,30.0,15.0,5.0,15.0,30.0,30.0,60.0,RR,59.7933584823933,
28.0,0.0,resp1,stim/left_resp_img.png,"[0.5, 0]",left,stim/silver_coin.png,gold,,,,,training,,,silver,val,,,,,0.0,1.0,1.0,1.0,2.0,0.0,4.0,0.0,,,,,,,,,1.0,training_resp,,296.82788093108684,6.217634330503643,14.0,,left,silver,0.0,28.0,1.0,right,2021_Oct_12_1615,habits_v_MRI,5.0,40.0,1.0,5.0,30.0,15.0,5.0,15.0,30.0,30.0,60.0,RR,59.7933584823933,
28.0,0.0,resp1,stim/left_resp_img.png,"[0.5, 0]",left,stim/silver_coin.png,gold,,,,,training,,,silver,val,,,,,0.0,1.0,1.0,1.0,2.0,0.0,4.0,0.0,,,,,,,,,1.0,training_resp,,297.06188757065684,6.451723959296942,14.0,,left,silver,0.0,28.0,1.0,right,2021_Oct_12_1615,habits_v_MRI,5.0,40.0,1.0,5.0,30.0,15.0,5.0,15.0,30.0,30.0,60.0,RR,59.7933584823933,
28.0,0.0,resp1,stim/left_resp_img.png,"[0.5, 0]",left,stim/silver_coin.png,gold,,,,,training,,,silver,val,,,,,0.0,1.0,1.0,1.0,2.0,0.0,4.0,0.0,,,,,,,,,1.0,training_resp,,297.7805545721203,7.170554886572063,14.0,,left,silver,0.0,28.0,1.0,right,2021_Oct_12_1615,habits_v_MRI,5.0,40.0,1.0,5.0,30.0,15.0,5.0,15.0,30.0,30.0,60.0,RR,59.7933584823933,
28.0,0.0,resp1,stim/left_resp_img.png,"[0.5, 0]",left,stim/silver_coin.png,gold,,,,,training,,,silver,val,,,,,0.0,1.0,1.0,1.0,2.0,0.0,4.0,0.0,,,,,,,,,1.0,training_resp,,298.0648006927222,7.454784878529608,14.0,,left,silver,0.0,28.0,1.0,right,2021_Oct_12_1615,habits_v_MRI,5.0,40.0,1.0,5.0,30.0,15.0,5.0,15.0,30.0,30.0,60.0,RR,59.7933584823933,
28.0,0.0,resp1,stim/left_resp_img.png,"[0.5, 0]",left,stim/silver_coin.png,gold,,,,,training,,,silver,val,,,,,0.0,1.0,1.0,1.0,2.0,0.0,4.0,0.0,,,,,,,,,1.0,training_resp,,298.7169594205916,8.106962081044912,14.0,,left,silver,0.0,28.0,1.0,right,2021_Oct_12_1615,habits_v_MRI,5.0,40.0,1.0,5.0,30.0,15.0,5.0,15.0,30.0,30.0,60.0,RR,59.7933584823933,
28.0,0.0,resp1,stim/left_resp_img.png,"[0.5, 0]",left,stim/silver_coin.png,gold,,,,,training,,,silver,val,,,,,0.0,1.0,1.0,1.0,2.0,0.0,4.0,0.0,,,,,,,,,1.0,training_resp,,299.1013578241691,8.491415615193546,14.0,,left,silver,0.0,28.0,1.0,right,2021_Oct_12_1615,habits_v_MRI,5.0,40.0,1.0,5.0,30.0,15.0,5.0,15.0,30.0,30.0,60.0,RR,59.7933584823933,
