list,trial_num_python,condition,stimulus,position,corrResp,coin_img,devalued_coin,stimulus_choice1,stimulus_choice2,position1,position2,phase,corrResp1,corrResp2,outcome,cond_val,outcome_choice1,outcome_choice2,cond_val1,cond_val2,blockLoop.thisRepN,blockLoop.thisTrialN,blockLoop.thisN,blockLoop.thisIndex,trialLoop.thisRepN,trialLoop.thisTrialN,trialLoop.thisN,trialLoop.thisIndex,choice_trialLoop.thisRepN,choice_trialLoop.thisTrialN,choice_trialLoop.thisN,choice_trialLoop.thisIndex,contingency_trialLoop.thisRepN,contingency_trialLoop.thisTrialN,contingency_trialLoop.thisN,contingency_trialLoop.thisIndex,run,event,duration,globalClock_t,routineClock_t,trial,nResp_untilRnf,resp,selected_coin,wasRnf,participant,task_ordering,hand,date,expName,n_repeat_training,credits_per_rnf,cost_response,min_resp_bet_rnf,max_resp_bet_rnf,mean_resp_bet_rnf,sigma_resp_bet_rnf,min_ITI,max_ITI,min_trial_duration,max_trial_duration,schedule,frameRate,Unnamed: 65
14.0,0.0,resp1,stim/right_resp_img.png,"[-0.5, 0]",right,stim/gold_coin.png,silver,,,,,training,,,gold,val,,,,,0.0,0.0,0.0,0.0,0.0,0.0,0.0,0.0,,,,,,,,,0.0,instr_before_block,6.0,0.0044153910130262,,,,,,,270.0,2.0,right,2023_Dec_12_1135,habits_v_MRI,5.0,40.0,1.0,5.0,30.0,15.0,5.0,15.0,30.0,30.0,60.0,RR,60.094826636662326,
14.0,0.0,resp1,stim/right_resp_img.png,"[-0.5, 0]",right,stim/gold_coin.png,silver,,,,,training,,,gold,val,,,,,0.0,0.0,0.0,0.0,0.0,0.0,0.0,0.0,,,,,,,,,0.0,training_period_start,37.5,6.032849312759936,0.0,0.0,8.0,,,,270.0,2.0,right,2023_Dec_12_1135,habits_v_MRI,5.0,40.0,1.0,5.0,30.0,15.0,5.0,15.0,30.0,30.0,60.0,RR,60.094826636662326,
14.0,0.0,resp1,stim/right_resp_img.png,"[-0.5, 0]",right,stim/gold_coin.png,silver,,,,,training,,,gold,val,,,,,0.0,0.0,0.0,0.0,0.0,0.0,0.0,0.0,,,,,,,,,0.0,training_resp,,7.162378886248916,1.1487825782969594,0.0,,right,gold,0.0,270.0,2.0,right,2023_Dec_12_1135,habits_v_MRI,5.0,40.0,1.0,5.0,30.0,15.0,5.0,15.0,30.0,30.0,60.0,RR,60.094826636662326,
14.0,0.0,resp1,stim/right_resp_img.png,"[-0.5, 0]",right,stim/gold_coin.png,silver,,,,,training,,,gold,val,,,,,0.0,0.0,0.0,0.0,0.0,0.0,0.0,0.0,,,,,,,,,0.0,training_resp,,9.912034689914435,3.898643946740776,0.0,,right,gold,0.0,270.0,2.0,right,2023_Dec_12_1135,habits_v_MRI,5.0,40.0,1.0,5.0,30.0,15.0,5.0,15.0,30.0,30.0,60.0,RR,60.094826636662326,
14.0,0.0,resp1,stim/right_resp_img.png,"[-0.5, 0]",right,stim/gold_coin.png,silver,,,,,training,,,gold,val,,,,,0.0,0.0,0.0,0.0,0.0,0.0,0.0,0.0,,,,,,,,,0.0,training_resp,,13.261875765398145,7.248460390139371,0.0,,right,gold,0.0,270.0,2.0,right,2023_Dec_12_1135,habits_v_MRI,5.0,40.0,1.0,5.0,30.0,15.0,5.0,15.0,30.0,30.0,60.0,RR,60.094826636662326,
14.0,0.0,resp1,stim/right_resp_img.png,"[-0.5, 0]",right,stim/gold_coin.png,silver,,,,,training,,,gold,val,,,,,0.0,0.0,0.0,0.0,0.0,0.0,0.0,0.0,,,,,,,,,0.0,training_resp,,13.661880515981466,7.648402679245919,0.0,,right,gold,0.0,270.0,2.0,right,2023_Dec_12_1135,habits_v_MRI,5.0,40.0,1.0,5.0,30.0,15.0,5.0,15.0,30.0,30.0,60.0,RR,60.094826636662326,
14.0,0.0,resp1,stim/right_resp_img.png,"[-0.5, 0]",right,stim/gold_coin.png,silver,,,,,training,,,gold,val,,,,,0.0,0.0,0.0,0.0,0.0,0.0,0.0,0.0,,,,,,,,,0.0,training_resp,,32.79399035265669,26.780467063188556,0.0,,right,gold,0.0,270.0,2.0,right,2023_Dec_12_1135,habits_v_MRI,5.0,40.0,1.0,5.0,30.0,15.0,5.0,15.0,30.0,30.0,60.0,RR,60.094826636662326,
14.0,0.0,resp1,stim/right_resp_img.png,"[-0.5, 0]",right,stim/gold_coin.png,silver,,,,,training,,,gold,val,,,,,0.0,0.0,0.0,0.0,0.0,0.0,0.0,0.0,,,,,,,,,0.0,training_resp,,33.39374162210152,27.38036026293412,0.0,,right,gold,0.0,270.0,2.0,right,2023_Dec_12_1135,habits_v_MRI,5.0,40.0,1.0,5.0,30.0,15.0,5.0,15.0,30.0,30.0,60.0,RR,60.094826636662326,
14.0,0.0,resp1,stim/right_resp_img.png,"[-0.5, 0]",right,stim/gold_coin.png,silver,,,,,training,,,gold,val,,,,,0.0,0.0,0.0,0.0,0.0,0.0,0.0,0.0,,,,,,,,,0.0,training_resp,,39.80907018715516,33.796164471656084,0.0,,right,gold,0.0,270.0,2.0,right,2023_Dec_12_1135,habits_v_MRI,5.0,40.0,1.0,5.0,30.0,15.0,5.0,15.0,30.0,30.0,60.0,RR,60.094826636662326,
14.0,0.0,resp1,stim/right_resp_img.png,"[-0.5, 0]",right,stim/gold_coin.png,silver,,,,,training,,,gold,val,,,,,0.0,0.0,0.0,0.0,0.0,0.0,0.0,0.0,,,,,,,,,0.0,ITI_start,20.0,43.192468176130205,37.17970116529614,,,,,,270.0,2.0,right,2023_Dec_12_1135,habits_v_MRI,5.0,40.0,1.0,5.0,30.0,15.0,5.0,15.0,30.0,30.0,60.0,RR,60.094826636662326,
14.0,1.0,resp2,stim/left_resp_img.png,"[0.5, 0]",left,stim/silver_coin.png,silver,,,,,training,,,silver,deval,,,,,0.0,0.0,0.0,0.0,0.0,1.0,1.0,1.0,,,,,,,,,0.0,training_period_start,45.0,63.22966748662293,0.0,1.0,16.0,,,,270.0,2.0,right,2023_Dec_12_1135,habits_v_MRI,5.0,40.0,1.0,5.0,30.0,15.0,5.0,15.0,30.0,30.0,60.0,RR,60.094826636662326,
14.0,1.0,resp2,stim/left_resp_img.png,"[0.5, 0]",left,stim/silver_coin.png,silver,,,,,training,,,silver,deval,,,,,0.0,0.0,0.0,0.0,0.0,1.0,1.0,1.0,,,,,,,,,0.0,training_resp,,64.84161833720282,1.63151645520702,1.0,,left,silver,0.0,270.0,2.0,right,2023_Dec_12_1135,habits_v_MRI,5.0,40.0,1.0,5.0,30.0,15.0,5.0,15.0,30.0,30.0,60.0,RR,60.094826636662326,
14.0,1.0,resp2,stim/left_resp_img.png,"[0.5, 0]",left,stim/silver_coin.png,silver,,,,,training,,,silver,deval,,,,,0.0,0.0,0.0,0.0,0.0,1.0,1.0,1.0,,,,,,,,,0.0,training_resp,,70.0913420272991,6.881208181381226,1.0,,left,silver,0.0,270.0,2.0,right,2023_Dec_12_1135,habits_v_MRI,5.0,40.0,1.0,5.0,30.0,15.0,5.0,15.0,30.0,30.0,60.0,RR,60.094826636662326,
14.0,1.0,resp2,stim/left_resp_img.png,"[0.5, 0]",left,stim/silver_coin.png,silver,,,,,training,,,silver,deval,,,,,0.0,0.0,0.0,0.0,0.0,1.0,1.0,1.0,,,,,,,,,0.0,training_resp,,76.20755944726989,12.9974176841788,1.0,,left,silver,0.0,270.0,2.0,right,2023_Dec_12_1135,habits_v_MRI,5.0,40.0,1.0,5.0,30.0,15.0,5.0,15.0,30.0,30.0,60.0,RR,60.094826636662326,
14.0,1.0,resp2,stim/left_resp_img.png,"[0.5, 0]",left,stim/silver_coin.png,silver,,,,,training,,,silver,deval,,,,,0.0,0.0,0.0,0.0,0.0,1.0,1.0,1.0,,,,,,,,,0.0,training_resp,,76.75748486025259,13.547407317906618,1.0,,left,silver,0.0,270.0,2.0,right,2023_Dec_12_1135,habits_v_MRI,5.0,40.0,1.0,5.0,30.0,15.0,5.0,15.0,30.0,30.0,60.0,RR,60.094826636662326,
14.0,1.0,resp2,stim/left_resp_img.png,"[0.5, 0]",left,stim/silver_coin.png,silver,,,,,training,,,silver,deval,,,,,0.0,0.0,0.0,0.0,0.0,1.0,1.0,1.0,,,,,,,,,0.0,training_resp,,82.24055655580014,19.03030423866585,1.0,,left,silver,0.0,270.0,2.0,right,2023_Dec_12_1135,habits_v_MRI,5.0,40.0,1.0,5.0,30.0,15.0,5.0,15.0,30.0,30.0,60.0,RR,60.094826636662326,
14.0,1.0,resp2,stim/left_resp_img.png,"[0.5, 0]",left,stim/silver_coin.png,silver,,,,,training,,,silver,deval,,,,,0.0,0.0,0.0,0.0,0.0,1.0,1.0,1.0,,,,,,,,,0.0,training_resp,,82.79050396196544,19.58028536848724,1.0,,left,silver,0.0,270.0,2.0,right,2023_Dec_12_1135,habits_v_MRI,5.0,40.0,1.0,5.0,30.0,15.0,5.0,15.0,30.0,30.0,60.0,RR,60.094826636662326,
14.0,1.0,resp2,stim/left_resp_img.png,"[0.5, 0]",left,stim/silver_coin.png,silver,,,,,training,,,silver,deval,,,,,0.0,0.0,0.0,0.0,0.0,1.0,1.0,1.0,,,,,,,,,0.0,training_resp,,104.18931843107566,40.97887579817325,1.0,,left,silver,0.0,270.0,2.0,right,2023_Dec_12_1135,habits_v_MRI,5.0,40.0,1.0,5.0,30.0,15.0,5.0,15.0,30.0,30.0,60.0,RR,60.094826636662326,
14.0,1.0,resp2,stim/left_resp_img.png,"[0.5, 0]",left,stim/silver_coin.png,silver,,,,,training,,,silver,deval,,,,,0.0,0.0,0.0,0.0,0.0,1.0,1.0,1.0,,,,,,,,,0.0,ITI_start,21.666666666666668,107.88971903314814,44.67862715572119,,,,,,270.0,2.0,right,2023_Dec_12_1135,habits_v_MRI,5.0,40.0,1.0,5.0,30.0,15.0,5.0,15.0,30.0,30.0,60.0,RR,60.094826636662326,
14.0,0.0,resp1,stim/right_resp_img.png,"[-0.5, 0]",right,stim/gold_coin.png,silver,,,,,training,,,gold,val,,,,,0.0,0.0,0.0,0.0,1.0,0.0,2.0,0.0,,,,,,,,,0.0,training_period_start,60.0,129.59158322121948,0.0,2.0,19.0,,,,270.0,2.0,right,2023_Dec_12_1135,habits_v_MRI,5.0,40.0,1.0,5.0,30.0,15.0,5.0,15.0,30.0,30.0,60.0,RR,60.094826636662326,
14.0,0.0,resp1,stim/right_resp_img.png,"[-0.5, 0]",right,stim/gold_coin.png,silver,,,,,training,,,gold,val,,,,,0.0,0.0,0.0,0.0,1.0,0.0,2.0,0.0,,,,,,,,,0.0,training_resp,,131.00398549390957,1.4314963389188051,2.0,,right,gold,0.0,270.0,2.0,right,2023_Dec_12_1135,habits_v_MRI,5.0,40.0,1.0,5.0,30.0,15.0,5.0,15.0,30.0,30.0,60.0,RR,60.094826636662326,
14.0,0.0,resp1,stim/right_resp_img.png,"[-0.5, 0]",right,stim/gold_coin.png,silver,,,,,training,,,gold,val,,,,,0.0,0.0,0.0,0.0,1.0,0.0,2.0,0.0,,,,,,,,,0.0,training_resp,,136.0869729691185,6.514515777584165,2.0,,right,gold,0.0,270.0,2.0,right,2023_Dec_12_1135,habits_v_MRI,5.0,40.0,1.0,5.0,30.0,15.0,5.0,15.0,30.0,30.0,60.0,RR,60.094826636662326,
14.0,0.0,resp1,stim/right_resp_img.png,"[-0.5, 0]",right,stim/gold_coin.png,silver,,,,,training,,,gold,val,,,,,0.0,0.0,0.0,0.0,1.0,0.0,2.0,0.0,,,,,,,,,0.0,training_resp,,136.48694692878053,6.914529912173748,2.0,,right,gold,0.0,270.0,2.0,right,2023_Dec_12_1135,habits_v_MRI,5.0,40.0,1.0,5.0,30.0,15.0,5.0,15.0,30.0,30.0,60.0,RR,60.094826636662326,
14.0,0.0,resp1,stim/right_resp_img.png,"[-0.5, 0]",right,stim/gold_coin.png,silver,,,,,training,,,gold,val,,,,,0.0,0.0,0.0,0.0,1.0,0.0,2.0,0.0,,,,,,,,,0.0,training_resp,,155.88565406994894,26.31317693786696,2.0,,right,gold,0.0,270.0,2.0,right,2023_Dec_12_1135,habits_v_MRI,5.0,40.0,1.0,5.0,30.0,15.0,5.0,15.0,30.0,30.0,60.0,RR,60.094826636662326,
14.0,0.0,resp1,stim/right_resp_img.png,"[-0.5, 0]",right,stim/gold_coin.png,silver,,,,,training,,,gold,val,,,,,0.0,0.0,0.0,0.0,1.0,0.0,2.0,0.0,,,,,,,,,0.0,training_resp,,156.56883238907903,26.99645378766581,2.0,,right,gold,0.0,270.0,2.0,right,2023_Dec_12_1135,habits_v_MRI,5.0,40.0,1.0,5.0,30.0,15.0,5.0,15.0,30.0,30.0,60.0,RR,60.094826636662326,
14.0,0.0,resp1,stim/right_resp_img.png,"[-0.5, 0]",right,stim/gold_coin.png,silver,,,,,training,,,gold,val,,,,,0.0,0.0,0.0,0.0,1.0,0.0,2.0,0.0,,,,,,,,,0.0,training_resp,,165.88507520407438,36.312526226975024,2.0,,right,gold,0.0,270.0,2.0,right,2023_Dec_12_1135,habits_v_MRI,5.0,40.0,1.0,5.0,30.0,15.0,5.0,15.0,30.0,30.0,60.0,RR,60.094826636662326,
14.0,0.0,resp1,stim/right_resp_img.png,"[-0.5, 0]",right,stim/gold_coin.png,silver,,,,,training,,,gold,val,,,,,0.0,0.0,0.0,0.0,1.0,0.0,2.0,0.0,,,,,,,,,0.0,training_resp,,183.65052636014295,54.078016091603786,2.0,,right,gold,0.0,270.0,2.0,right,2023_Dec_12_1135,habits_v_MRI,5.0,40.0,1.0,5.0,30.0,15.0,5.0,15.0,30.0,30.0,60.0,RR,60.094826636662326,
14.0,0.0,resp1,stim/right_resp_img.png,"[-0.5, 0]",right,stim/gold_coin.png,silver,,,,,training,,,gold,val,,,,,0.0,0.0,0.0,0.0,1.0,0.0,2.0,0.0,,,,,,,,,0.0,training_resp,,184.2338166111149,54.66137789422646,2.0,,right,gold,0.0,270.0,2.0,right,2023_Dec_12_1135,habits_v_MRI,5.0,40.0,1.0,5.0,30.0,15.0,5.0,15.0,30.0,30.0,60.0,RR,60.094826636662326,
14.0,0.0,resp1,stim/right_resp_img.png,"[-0.5, 0]",right,stim/gold_coin.png,silver,,,,,training,,,gold,val,,,,,0.0,0.0,0.0,0.0,1.0,0.0,2.0,0.0,,,,,,,,,0.0,ITI_start,30.0,189.2510004788637,59.67773011885584,,,,,,270.0,2.0,right,2023_Dec_12_1135,habits_v_MRI,5.0,40.0,1.0,5.0,30.0,15.0,5.0,15.0,30.0,30.0,60.0,RR,60.094826636662326,
14.0,1.0,resp2,stim/left_resp_img.png,"[0.5, 0]",left,stim/silver_coin.png,silver,,,,,training,,,silver,deval,,,,,0.0,0.0,0.0,0.0,1.0,1.0,3.0,1.0,,,,,,,,,0.0,training_period_start,30.0,219.28513743076476,0.0,3.0,12.0,,,,270.0,2.0,right,2023_Dec_12_1135,habits_v_MRI,5.0,40.0,1.0,5.0,30.0,15.0,5.0,15.0,30.0,30.0,60.0,RR,60.094826636662326,
14.0,1.0,resp2,stim/left_resp_img.png,"[0.5, 0]",left,stim/silver_coin.png,silver,,,,,training,,,silver,deval,,,,,0.0,0.0,0.0,0.0,1.0,1.0,3.0,1.0,,,,,,,,,0.0,training_resp,,220.69807839440185,1.4313887180760505,3.0,,left,silver,0.0,270.0,2.0,right,2023_Dec_12_1135,habits_v_MRI,5.0,40.0,1.0,5.0,30.0,15.0,5.0,15.0,30.0,30.0,60.0,RR,60.094826636662326,
14.0,1.0,resp2,stim/left_resp_img.png,"[0.5, 0]",left,stim/silver_coin.png,silver,,,,,training,,,silver,deval,,,,,0.0,0.0,0.0,0.0,1.0,1.0,3.0,1.0,,,,,,,,,0.0,training_resp,,221.09804179752248,1.8313790992833676,3.0,,left,silver,0.0,270.0,2.0,right,2023_Dec_12_1135,habits_v_MRI,5.0,40.0,1.0,5.0,30.0,15.0,5.0,15.0,30.0,30.0,60.0,RR,60.094826636662326,
14.0,1.0,resp2,stim/left_resp_img.png,"[0.5, 0]",left,stim/silver_coin.png,silver,,,,,training,,,silver,deval,,,,,0.0,0.0,0.0,0.0,1.0,1.0,3.0,1.0,,,,,,,,,0.0,training_resp,,243.81342692952603,24.546595029067248,3.0,,left,silver,0.0,270.0,2.0,right,2023_Dec_12_1135,habits_v_MRI,5.0,40.0,1.0,5.0,30.0,15.0,5.0,15.0,30.0,30.0,60.0,RR,60.094826636662326,
14.0,1.0,resp2,stim/left_resp_img.png,"[0.5, 0]",left,stim/silver_coin.png,silver,,,,,training,,,silver,deval,,,,,0.0,0.0,0.0,0.0,1.0,1.0,3.0,1.0,,,,,,,,,0.0,ITI_start,23.333333333333336,248.94701325474307,29.679571111686528,,,,,,270.0,2.0,right,2023_Dec_12_1135,habits_v_MRI,5.0,40.0,1.0,5.0,30.0,15.0,5.0,15.0,30.0,30.0,60.0,RR,60.094826636662326,
14.0,0.0,resp1,stim/right_resp_img.png,"[-0.5, 0]",right,stim/gold_coin.png,silver,,,,,training,,,gold,val,,,,,0.0,0.0,0.0,0.0,2.0,0.0,4.0,0.0,,,,,,,,,0.0,training_period_start,45.0,272.3160780114122,0.0,4.0,21.0,,,,270.0,2.0,right,2023_Dec_12_1135,habits_v_MRI,5.0,40.0,1.0,5.0,30.0,15.0,5.0,15.0,30.0,30.0,60.0,RR,60.094826636662326,
14.0,0.0,resp1,stim/right_resp_img.png,"[-0.5, 0]",right,stim/gold_coin.png,silver,,,,,training,,,gold,val,,,,,0.0,0.0,0.0,0.0,2.0,0.0,4.0,0.0,,,,,,,,,0.0,training_resp,,273.99467994784936,1.6981335245072842,4.0,,right,gold,0.0,270.0,2.0,right,2023_Dec_12_1135,habits_v_MRI,5.0,40.0,1.0,5.0,30.0,15.0,5.0,15.0,30.0,30.0,60.0,RR,60.094826636662326,
14.0,0.0,resp1,stim/right_resp_img.png,"[-0.5, 0]",right,stim/gold_coin.png,silver,,,,,training,,,gold,val,,,,,0.0,0.0,0.0,0.0,2.0,0.0,4.0,0.0,,,,,,,,,0.0,ITI_start,25.0,316.976082932204,44.67858727416024,,,,,,270.0,2.0,right,2023_Dec_12_1135,habits_v_MRI,5.0,40.0,1.0,5.0,30.0,15.0,5.0,15.0,30.0,30.0,60.0,RR,60.094826636662326,
14.0,1.0,resp2,stim/left_resp_img.png,"[0.5, 0]",left,stim/silver_coin.png,silver,,,,,training,,,silver,deval,,,,,0.0,0.0,0.0,0.0,2.0,1.0,5.0,1.0,,,,,,,,,0.0,training_period_start,52.5,342.0114142713137,0.0,5.0,21.0,,,,270.0,2.0,right,2023_Dec_12_1135,habits_v_MRI,5.0,40.0,1.0,5.0,30.0,15.0,5.0,15.0,30.0,30.0,60.0,RR,60.094826636662326,
14.0,1.0,resp2,stim/left_resp_img.png,"[0.5, 0]",left,stim/silver_coin.png,silver,,,,,training,,,silver,deval,,,,,0.0,0.0,0.0,0.0,2.0,1.0,5.0,1.0,,,,,,,,,0.0,training_resp,,344.0400977442041,2.048202451784164,5.0,,left,silver,0.0,270.0,2.0,right,2023_Dec_12_1135,habits_v_MRI,5.0,40.0,1.0,5.0,30.0,15.0,5.0,15.0,30.0,30.0,60.0,RR,60.094826636662326,
14.0,1.0,resp2,stim/left_resp_img.png,"[0.5, 0]",left,stim/silver_coin.png,silver,,,,,training,,,silver,deval,,,,,0.0,0.0,0.0,0.0,2.0,1.0,5.0,1.0,,,,,,,,,0.0,ITI_start,28.333333333333336,394.1709624626674,52.17820121720433,,,,,,270.0,2.0,right,2023_Dec_12_1135,habits_v_MRI,5.0,40.0,1.0,5.0,30.0,15.0,5.0,15.0,30.0,30.0,60.0,RR,60.094826636662326,
14.0,0.0,resp1,stim/right_resp_img.png,"[-0.5, 0]",right,stim/gold_coin.png,silver,,,,,training,,,gold,val,,,,,0.0,0.0,0.0,0.0,3.0,0.0,6.0,0.0,,,,,,,,,0.0,training_period_start,30.0,422.5398413017392,0.0,6.0,16.0,,,,270.0,2.0,right,2023_Dec_12_1135,habits_v_MRI,5.0,40.0,1.0,5.0,30.0,15.0,5.0,15.0,30.0,30.0,60.0,RR,60.094826636662326,
14.0,0.0,resp1,stim/right_resp_img.png,"[-0.5, 0]",right,stim/gold_coin.png,silver,,,,,training,,,gold,val,,,,,0.0,0.0,0.0,0.0,3.0,0.0,6.0,0.0,,,,,,,,,0.0,training_resp,,424.41829444561154,1.8980838488787413,6.0,,right,gold,0.0,270.0,2.0,right,2023_Dec_12_1135,habits_v_MRI,5.0,40.0,1.0,5.0,30.0,15.0,5.0,15.0,30.0,30.0,60.0,RR,60.094826636662326,
14.0,0.0,resp1,stim/right_resp_img.png,"[-0.5, 0]",right,stim/gold_coin.png,silver,,,,,training,,,gold,val,,,,,0.0,0.0,0.0,0.0,3.0,0.0,6.0,0.0,,,,,,,,,0.0,training_resp,,436.9673823509365,14.447232748847457,6.0,,right,gold,0.0,270.0,2.0,right,2023_Dec_12_1135,habits_v_MRI,5.0,40.0,1.0,5.0,30.0,15.0,5.0,15.0,30.0,30.0,60.0,RR,60.094826636662326,
14.0,0.0,resp1,stim/right_resp_img.png,"[-0.5, 0]",right,stim/gold_coin.png,silver,,,,,training,,,gold,val,,,,,0.0,0.0,0.0,0.0,3.0,0.0,6.0,0.0,,,,,,,,,0.0,training_resp,,437.3007163684815,14.780572631396351,6.0,,right,gold,0.0,270.0,2.0,right,2023_Dec_12_1135,habits_v_MRI,5.0,40.0,1.0,5.0,30.0,15.0,5.0,15.0,30.0,30.0,60.0,RR,60.094826636662326,
14.0,0.0,resp1,stim/right_resp_img.png,"[-0.5, 0]",right,stim/gold_coin.png,silver,,,,,training,,,gold,val,,,,,0.0,0.0,0.0,0.0,3.0,0.0,6.0,0.0,,,,,,,,,0.0,training_resp,,438.6005245568231,16.080499877221882,6.0,,right,gold,0.0,270.0,2.0,right,2023_Dec_12_1135,habits_v_MRI,5.0,40.0,1.0,5.0,30.0,15.0,5.0,15.0,30.0,30.0,60.0,RR,60.094826636662326,
14.0,0.0,resp1,stim/right_resp_img.png,"[-0.5, 0]",right,stim/gold_coin.png,silver,,,,,training,,,gold,val,,,,,0.0,0.0,0.0,0.0,3.0,0.0,6.0,0.0,,,,,,,,,0.0,training_resp,,439.9338327688165,17.41375647811219,6.0,,right,gold,0.0,270.0,2.0,right,2023_Dec_12_1135,habits_v_MRI,5.0,40.0,1.0,5.0,30.0,15.0,5.0,15.0,30.0,30.0,60.0,RR,60.094826636662326,
14.0,0.0,resp1,stim/right_resp_img.png,"[-0.5, 0]",right,stim/gold_coin.png,silver,,,,,training,,,gold,val,,,,,0.0,0.0,0.0,0.0,3.0,0.0,6.0,0.0,,,,,,,,,0.0,training_resp,,440.4001683811657,17.880320235621184,6.0,,right,gold,0.0,270.0,2.0,right,2023_Dec_12_1135,habits_v_MRI,5.0,40.0,1.0,5.0,30.0,15.0,5.0,15.0,30.0,30.0,60.0,RR,60.094826636662326,
14.0,0.0,resp1,stim/right_resp_img.png,"[-0.5, 0]",right,stim/gold_coin.png,silver,,,,,training,,,gold,val,,,,,0.0,0.0,0.0,0.0,3.0,0.0,6.0,0.0,,,,,,,,,0.0,training_resp,,441.63368793483824,19.11360871233046,6.0,,right,gold,0.0,270.0,2.0,right,2023_Dec_12_1135,habits_v_MRI,5.0,40.0,1.0,5.0,30.0,15.0,5.0,15.0,30.0,30.0,60.0,RR,60.094826636662326,
14.0,0.0,resp1,stim/right_resp_img.png,"[-0.5, 0]",right,stim/gold_coin.png,silver,,,,,training,,,gold,val,,,,,0.0,0.0,0.0,0.0,3.0,0.0,6.0,0.0,,,,,,,,,0.0,training_resp,,443.16692213201895,20.646810652222484,6.0,,right,gold,0.0,270.0,2.0,right,2023_Dec_12_1135,habits_v_MRI,5.0,40.0,1.0,5.0,30.0,15.0,5.0,15.0,30.0,30.0,60.0,RR,60.094826636662326,
14.0,0.0,resp1,stim/right_resp_img.png,"[-0.5, 0]",right,stim/gold_coin.png,silver,,,,,training,,,gold,val,,,,,0.0,0.0,0.0,0.0,3.0,0.0,6.0,0.0,,,,,,,,,0.0,training_resp,,443.6502099488862,21.130178524646908,6.0,,right,gold,0.0,270.0,2.0,right,2023_Dec_12_1135,habits_v_MRI,5.0,40.0,1.0,5.0,30.0,15.0,5.0,15.0,30.0,30.0,60.0,RR,60.094826636662326,
14.0,0.0,resp1,stim/right_resp_img.png,"[-0.5, 0]",right,stim/gold_coin.png,silver,,,,,training,,,gold,val,,,,,0.0,0.0,0.0,0.0,3.0,0.0,6.0,0.0,,,,,,,,,0.0,training_resp,,445.333368034102,22.813367694150656,6.0,,right,gold,0.0,270.0,2.0,right,2023_Dec_12_1135,habits_v_MRI,5.0,40.0,1.0,5.0,30.0,15.0,5.0,15.0,30.0,30.0,60.0,RR,60.094826636662326,
14.0,0.0,resp1,stim/right_resp_img.png,"[-0.5, 0]",right,stim/gold_coin.png,silver,,,,,training,,,gold,val,,,,,0.0,0.0,0.0,0.0,3.0,0.0,6.0,0.0,,,,,,,,,0.0,training_resp,,447.0000434000976,24.47993602557108,6.0,,right,gold,0.0,270.0,2.0,right,2023_Dec_12_1135,habits_v_MRI,5.0,40.0,1.0,5.0,30.0,15.0,5.0,15.0,30.0,30.0,60.0,RR,60.094826636662326,
14.0,0.0,resp1,stim/right_resp_img.png,"[-0.5, 0]",right,stim/gold_coin.png,silver,,,,,training,,,gold,val,,,,,0.0,0.0,0.0,0.0,3.0,0.0,6.0,0.0,,,,,,,,,0.0,training_resp,,447.6666082129814,25.146584706846625,6.0,,right,gold,0.0,270.0,2.0,right,2023_Dec_12_1135,habits_v_MRI,5.0,40.0,1.0,5.0,30.0,15.0,5.0,15.0,30.0,30.0,60.0,RR,60.094826636662326,
14.0,0.0,resp1,stim/right_resp_img.png,"[-0.5, 0]",right,stim/gold_coin.png,silver,,,,,training,,,gold,val,,,,,0.0,0.0,0.0,0.0,3.0,0.0,6.0,0.0,,,,,,,,,0.0,training_resp,,449.0491865822114,26.529401190578938,6.0,,right,gold,0.0,270.0,2.0,right,2023_Dec_12_1135,habits_v_MRI,5.0,40.0,1.0,5.0,30.0,15.0,5.0,15.0,30.0,30.0,60.0,RR,60.094826636662326,
14.0,0.0,resp1,stim/right_resp_img.png,"[-0.5, 0]",right,stim/gold_coin.png,silver,,,,,training,,,gold,val,,,,,0.0,0.0,0.0,0.0,3.0,0.0,6.0,0.0,,,,,,,,,0.0,training_resp,,450.3659062138759,27.8461351916194,6.0,,right,gold,0.0,270.0,2.0,right,2023_Dec_12_1135,habits_v_MRI,5.0,40.0,1.0,5.0,30.0,15.0,5.0,15.0,30.0,30.0,60.0,RR,60.094826636662326,
14.0,0.0,resp1,stim/right_resp_img.png,"[-0.5, 0]",right,stim/gold_coin.png,silver,,,,,training,,,gold,val,,,,,0.0,0.0,0.0,0.0,3.0,0.0,6.0,0.0,,,,,,,,,0.0,training_resp,,450.8164705201052,28.296271652914584,6.0,,right,gold,0.0,270.0,2.0,right,2023_Dec_12_1135,habits_v_MRI,5.0,40.0,1.0,5.0,30.0,15.0,5.0,15.0,30.0,30.0,60.0,RR,60.094826636662326,
14.0,0.0,resp1,stim/right_resp_img.png,"[-0.5, 0]",right,stim/gold_coin.png,silver,,,,,training,,,gold,val,,,,,0.0,0.0,0.0,0.0,3.0,0.0,6.0,0.0,,,,,,,,,0.0,ITI_start,15.0,452.20053241588175,29.679613632149994,,,,,,270.0,2.0,right,2023_Dec_12_1135,habits_v_MRI,5.0,40.0,1.0,5.0,30.0,15.0,5.0,15.0,30.0,30.0,60.0,RR,60.094826636662326,
14.0,1.0,resp2,stim/left_resp_img.png,"[0.5, 0]",left,stim/silver_coin.png,silver,,,,,training,,,silver,deval,,,,,0.0,0.0,0.0,0.0,3.0,1.0,7.0,1.0,,,,,,,,,0.0,training_period_start,37.5,467.2342271539383,0.0,7.0,6.0,,,,270.0,2.0,right,2023_Dec_12_1135,habits_v_MRI,5.0,40.0,1.0,5.0,30.0,15.0,5.0,15.0,30.0,30.0,60.0,RR,60.094826636662326,
14.0,1.0,resp2,stim/left_resp_img.png,"[0.5, 0]",left,stim/silver_coin.png,silver,,,,,training,,,silver,deval,,,,,0.0,0.0,0.0,0.0,3.0,1.0,7.0,1.0,,,,,,,,,0.0,training_resp,,468.4818148468621,1.2647868092171848,7.0,,left,silver,0.0,270.0,2.0,right,2023_Dec_12_1135,habits_v_MRI,5.0,40.0,1.0,5.0,30.0,15.0,5.0,15.0,30.0,30.0,60.0,RR,60.094826636662326,
14.0,1.0,resp2,stim/left_resp_img.png,"[0.5, 0]",left,stim/silver_coin.png,silver,,,,,training,,,silver,deval,,,,,0.0,0.0,0.0,0.0,3.0,1.0,7.0,1.0,,,,,,,,,0.0,ITI_start,18.33333333333333,504.3969995751977,37.179134029429406,,,,,,270.0,2.0,right,2023_Dec_12_1135,habits_v_MRI,5.0,40.0,1.0,5.0,30.0,15.0,5.0,15.0,30.0,30.0,60.0,RR,60.094826636662326,
14.0,0.0,resp1,stim/right_resp_img.png,"[-0.5, 0]",right,stim/gold_coin.png,silver,,,,,training,,,gold,val,,,,,0.0,0.0,0.0,0.0,4.0,0.0,8.0,0.0,,,,,,,,,0.0,training_period_start,52.5,522.7662106608041,0.0,8.0,18.0,,,,270.0,2.0,right,2023_Dec_12_1135,habits_v_MRI,5.0,40.0,1.0,5.0,30.0,15.0,5.0,15.0,30.0,30.0,60.0,RR,60.094826636662326,
14.0,0.0,resp1,stim/right_resp_img.png,"[-0.5, 0]",right,stim/gold_coin.png,silver,,,,,training,,,gold,val,,,,,0.0,0.0,0.0,0.0,4.0,0.0,8.0,0.0,,,,,,,,,0.0,training_resp,,524.9448672872968,2.197961536236108,8.0,,right,gold,0.0,270.0,2.0,right,2023_Dec_12_1135,habits_v_MRI,5.0,40.0,1.0,5.0,30.0,15.0,5.0,15.0,30.0,30.0,60.0,RR,60.094826636662326,
14.0,0.0,resp1,stim/right_resp_img.png,"[-0.5, 0]",right,stim/gold_coin.png,silver,,,,,training,,,gold,val,,,,,0.0,0.0,0.0,0.0,4.0,0.0,8.0,0.0,,,,,,,,,0.0,training_resp,,525.2616995251738,2.514639527071268,8.0,,right,gold,0.0,270.0,2.0,right,2023_Dec_12_1135,habits_v_MRI,5.0,40.0,1.0,5.0,30.0,15.0,5.0,15.0,30.0,30.0,60.0,RR,60.094826636662326,
14.0,0.0,resp1,stim/right_resp_img.png,"[-0.5, 0]",right,stim/gold_coin.png,silver,,,,,training,,,gold,val,,,,,0.0,0.0,0.0,0.0,4.0,0.0,8.0,0.0,,,,,,,,,0.0,ITI_start,16.666666666666668,574.9258213136345,52.1780689638108,,,,,,270.0,2.0,right,2023_Dec_12_1135,habits_v_MRI,5.0,40.0,1.0,5.0,30.0,15.0,5.0,15.0,30.0,30.0,60.0,RR,60.094826636662326,
14.0,1.0,resp2,stim/left_resp_img.png,"[0.5, 0]",left,stim/silver_coin.png,silver,,,,,training,,,silver,deval,,,,,0.0,0.0,0.0,0.0,4.0,1.0,9.0,1.0,,,,,,,,,0.0,training_period_start,60.0,591.6283705220558,0.0,9.0,18.0,,,,270.0,2.0,right,2023_Dec_12_1135,habits_v_MRI,5.0,40.0,1.0,5.0,30.0,15.0,5.0,15.0,30.0,30.0,60.0,RR,60.094826636662326,
14.0,1.0,resp2,stim/left_resp_img.png,"[0.5, 0]",left,stim/silver_coin.png,silver,,,,,training,,,silver,deval,,,,,0.0,0.0,0.0,0.0,4.0,1.0,9.0,1.0,,,,,,,,,0.0,training_resp,,592.8905893843621,1.2814275873824954,9.0,,left,silver,0.0,270.0,2.0,right,2023_Dec_12_1135,habits_v_MRI,5.0,40.0,1.0,5.0,30.0,15.0,5.0,15.0,30.0,30.0,60.0,RR,60.094826636662326,
14.0,1.0,resp2,stim/left_resp_img.png,"[0.5, 0]",left,stim/silver_coin.png,silver,,,,,training,,,silver,deval,,,,,0.0,0.0,0.0,0.0,4.0,1.0,9.0,1.0,,,,,,,,,0.0,training_resp,,605.0730719794519,13.46407264051959,9.0,,left,silver,0.0,270.0,2.0,right,2023_Dec_12_1135,habits_v_MRI,5.0,40.0,1.0,5.0,30.0,15.0,5.0,15.0,30.0,30.0,60.0,RR,60.094826636662326,
14.0,1.0,resp2,stim/left_resp_img.png,"[0.5, 0]",left,stim/silver_coin.png,silver,,,,,training,,,silver,deval,,,,,0.0,0.0,0.0,0.0,4.0,1.0,9.0,1.0,,,,,,,,,0.0,training_resp,,605.5396577301435,13.930660150479524,9.0,,left,silver,0.0,270.0,2.0,right,2023_Dec_12_1135,habits_v_MRI,5.0,40.0,1.0,5.0,30.0,15.0,5.0,15.0,30.0,30.0,60.0,RR,60.094826636662326,
14.0,1.0,resp2,stim/left_resp_img.png,"[0.5, 0]",left,stim/silver_coin.png,silver,,,,,training,,,silver,deval,,,,,0.0,0.0,0.0,0.0,4.0,1.0,9.0,1.0,,,,,,,,,0.0,training_resp,,606.706137355417,15.09720135712996,9.0,,left,silver,0.0,270.0,2.0,right,2023_Dec_12_1135,habits_v_MRI,5.0,40.0,1.0,5.0,30.0,15.0,5.0,15.0,30.0,30.0,60.0,RR,60.094826636662326,
14.0,1.0,resp2,stim/left_resp_img.png,"[0.5, 0]",left,stim/silver_coin.png,silver,,,,,training,,,silver,deval,,,,,0.0,0.0,0.0,0.0,4.0,1.0,9.0,1.0,,,,,,,,,0.0,training_resp,,607.539700250607,15.930573349818587,9.0,,left,silver,0.0,270.0,2.0,right,2023_Dec_12_1135,habits_v_MRI,5.0,40.0,1.0,5.0,30.0,15.0,5.0,15.0,30.0,30.0,60.0,RR,60.094826636662326,
14.0,1.0,resp2,stim/left_resp_img.png,"[0.5, 0]",left,stim/silver_coin.png,silver,,,,,training,,,silver,deval,,,,,0.0,0.0,0.0,0.0,4.0,1.0,9.0,1.0,,,,,,,,,0.0,training_resp,,608.3394933370873,16.730448544491082,9.0,,left,silver,0.0,270.0,2.0,right,2023_Dec_12_1135,habits_v_MRI,5.0,40.0,1.0,5.0,30.0,15.0,5.0,15.0,30.0,30.0,60.0,RR,60.094826636662326,
14.0,1.0,resp2,stim/left_resp_img.png,"[0.5, 0]",left,stim/silver_coin.png,silver,,,,,training,,,silver,deval,,,,,0.0,0.0,0.0,0.0,4.0,1.0,9.0,1.0,,,,,,,,,0.0,training_resp,,608.989448455628,17.380432108417153,9.0,,left,silver,0.0,270.0,2.0,right,2023_Dec_12_1135,habits_v_MRI,5.0,40.0,1.0,5.0,30.0,15.0,5.0,15.0,30.0,30.0,60.0,RR,60.094826636662326,
14.0,1.0,resp2,stim/left_resp_img.png,"[0.5, 0]",left,stim/silver_coin.png,silver,,,,,training,,,silver,deval,,,,,0.0,0.0,0.0,0.0,4.0,1.0,9.0,1.0,,,,,,,,,0.0,training_resp,,609.7559444443323,18.146998475305736,9.0,,left,silver,0.0,270.0,2.0,right,2023_Dec_12_1135,habits_v_MRI,5.0,40.0,1.0,5.0,30.0,15.0,5.0,15.0,30.0,30.0,60.0,RR,60.094826636662326,
14.0,1.0,resp2,stim/left_resp_img.png,"[0.5, 0]",left,stim/silver_coin.png,silver,,,,,training,,,silver,deval,,,,,0.0,0.0,0.0,0.0,4.0,1.0,9.0,1.0,,,,,,,,,0.0,training_resp,,610.4227107162587,18.813706685323268,9.0,,left,silver,0.0,270.0,2.0,right,2023_Dec_12_1135,habits_v_MRI,5.0,40.0,1.0,5.0,30.0,15.0,5.0,15.0,30.0,30.0,60.0,RR,60.094826636662326,
14.0,1.0,resp2,stim/left_resp_img.png,"[0.5, 0]",left,stim/silver_coin.png,silver,,,,,training,,,silver,deval,,,,,0.0,0.0,0.0,0.0,4.0,1.0,9.0,1.0,,,,,,,,,0.0,training_resp,,611.1058943136595,19.49693250982091,9.0,,left,silver,0.0,270.0,2.0,right,2023_Dec_12_1135,habits_v_MRI,5.0,40.0,1.0,5.0,30.0,15.0,5.0,15.0,30.0,30.0,60.0,RR,60.094826636662326,
14.0,1.0,resp2,stim/left_resp_img.png,"[0.5, 0]",left,stim/silver_coin.png,silver,,,,,training,,,silver,deval,,,,,0.0,0.0,0.0,0.0,4.0,1.0,9.0,1.0,,,,,,,,,0.0,training_resp,,611.855890574865,20.24687510728836,9.0,,left,silver,0.0,270.0,2.0,right,2023_Dec_12_1135,habits_v_MRI,5.0,40.0,1.0,5.0,30.0,15.0,5.0,15.0,30.0,30.0,60.0,RR,60.094826636662326,
14.0,1.0,resp2,stim/left_resp_img.png,"[0.5, 0]",left,stim/silver_coin.png,silver,,,,,training,,,silver,deval,,,,,0.0,0.0,0.0,0.0,4.0,1.0,9.0,1.0,,,,,,,,,0.0,training_resp,,612.6059056036174,20.996963740326464,9.0,,left,silver,0.0,270.0,2.0,right,2023_Dec_12_1135,habits_v_MRI,5.0,40.0,1.0,5.0,30.0,15.0,5.0,15.0,30.0,30.0,60.0,RR,60.094826636662326,
14.0,1.0,resp2,stim/left_resp_img.png,"[0.5, 0]",left,stim/silver_coin.png,silver,,,,,training,,,silver,deval,,,,,0.0,0.0,0.0,0.0,4.0,1.0,9.0,1.0,,,,,,,,,0.0,training_resp,,613.3723502741195,21.76344770565629,9.0,,left,silver,0.0,270.0,2.0,right,2023_Dec_12_1135,habits_v_MRI,5.0,40.0,1.0,5.0,30.0,15.0,5.0,15.0,30.0,30.0,60.0,RR,60.094826636662326,
14.0,1.0,resp2,stim/left_resp_img.png,"[0.5, 0]",left,stim/silver_coin.png,silver,,,,,training,,,silver,deval,,,,,0.0,0.0,0.0,0.0,4.0,1.0,9.0,1.0,,,,,,,,,0.0,training_resp,,614.2223806395195,22.613454904872924,9.0,,left,silver,0.0,270.0,2.0,right,2023_Dec_12_1135,habits_v_MRI,5.0,40.0,1.0,5.0,30.0,15.0,5.0,15.0,30.0,30.0,60.0,RR,60.094826636662326,
14.0,1.0,resp2,stim/left_resp_img.png,"[0.5, 0]",left,stim/silver_coin.png,silver,,,,,training,,,silver,deval,,,,,0.0,0.0,0.0,0.0,4.0,1.0,9.0,1.0,,,,,,,,,0.0,training_resp,,615.1724254623987,23.563369819894437,9.0,,left,silver,0.0,270.0,2.0,right,2023_Dec_12_1135,habits_v_MRI,5.0,40.0,1.0,5.0,30.0,15.0,5.0,15.0,30.0,30.0,60.0,RR,60.094826636662326,
14.0,1.0,resp2,stim/left_resp_img.png,"[0.5, 0]",left,stim/silver_coin.png,silver,,,,,training,,,silver,deval,,,,,0.0,0.0,0.0,0.0,4.0,1.0,9.0,1.0,,,,,,,,,0.0,training_resp,,616.0056517124176,24.396673486568037,9.0,,left,silver,0.0,270.0,2.0,right,2023_Dec_12_1135,habits_v_MRI,5.0,40.0,1.0,5.0,30.0,15.0,5.0,15.0,30.0,30.0,60.0,RR,60.094826636662326,
14.0,1.0,resp2,stim/left_resp_img.png,"[0.5, 0]",left,stim/silver_coin.png,silver,,,,,training,,,silver,deval,,,,,0.0,0.0,0.0,0.0,4.0,1.0,9.0,1.0,,,,,,,,,0.0,training_resp,,616.8557075900026,25.24662203667685,9.0,,left,silver,0.0,270.0,2.0,right,2023_Dec_12_1135,habits_v_MRI,5.0,40.0,1.0,5.0,30.0,15.0,5.0,15.0,30.0,30.0,60.0,RR,60.094826636662326,
14.0,1.0,resp2,stim/left_resp_img.png,"[0.5, 0]",left,stim/silver_coin.png,silver,,,,,training,,,silver,deval,,,,,0.0,0.0,0.0,0.0,4.0,1.0,9.0,1.0,,,,,,,,,0.0,training_resp,,617.5556246312335,25.946563710458577,9.0,11.0,left,silver,1.0,270.0,2.0,right,2023_Dec_12_1135,habits_v_MRI,5.0,40.0,1.0,5.0,30.0,15.0,5.0,15.0,30.0,30.0,60.0,RR,60.094826636662326,
14.0,1.0,resp2,stim/left_resp_img.png,"[0.5, 0]",left,stim/silver_coin.png,silver,,,,,training,,,silver,deval,,,,,0.0,0.0,0.0,0.0,4.0,1.0,9.0,1.0,,,,,,,,,0.0,training_resp,,619.2220794768073,27.613104770425707,9.0,,left,silver,0.0,270.0,2.0,right,2023_Dec_12_1135,habits_v_MRI,5.0,40.0,1.0,5.0,30.0,15.0,5.0,15.0,30.0,30.0,60.0,RR,60.094826636662326,
14.0,1.0,resp2,stim/left_resp_img.png,"[0.5, 0]",left,stim/silver_coin.png,silver,,,,,training,,,silver,deval,,,,,0.0,0.0,0.0,0.0,4.0,1.0,9.0,1.0,,,,,,,,,0.0,training_resp,,619.9887288324535,28.379738583695143,9.0,,left,silver,0.0,270.0,2.0,right,2023_Dec_12_1135,habits_v_MRI,5.0,40.0,1.0,5.0,30.0,15.0,5.0,15.0,30.0,30.0,60.0,RR,60.094826636662326,
14.0,1.0,resp2,stim/left_resp_img.png,"[0.5, 0]",left,stim/silver_coin.png,silver,,,,,training,,,silver,deval,,,,,0.0,0.0,0.0,0.0,4.0,1.0,9.0,1.0,,,,,,,,,0.0,training_resp,,620.721989304293,29.11295770807192,9.0,,left,silver,0.0,270.0,2.0,right,2023_Dec_12_1135,habits_v_MRI,5.0,40.0,1.0,5.0,30.0,15.0,5.0,15.0,30.0,30.0,60.0,RR,60.094826636662326,
14.0,1.0,resp2,stim/left_resp_img.png,"[0.5, 0]",left,stim/silver_coin.png,silver,,,,,training,,,silver,deval,,,,,0.0,0.0,0.0,0.0,4.0,1.0,9.0,1.0,,,,,,,,,0.0,training_resp,,621.4053245093673,29.79634335124865,9.0,,left,silver,0.0,270.0,2.0,right,2023_Dec_12_1135,habits_v_MRI,5.0,40.0,1.0,5.0,30.0,15.0,5.0,15.0,30.0,30.0,60.0,RR,60.094826636662326,
14.0,1.0,resp2,stim/left_resp_img.png,"[0.5, 0]",left,stim/silver_coin.png,silver,,,,,training,,,silver,deval,,,,,0.0,0.0,0.0,0.0,4.0,1.0,9.0,1.0,,,,,,,,,0.0,training_resp,,622.4051095605828,30.79619848821312,9.0,,left,silver,0.0,270.0,2.0,right,2023_Dec_12_1135,habits_v_MRI,5.0,40.0,1.0,5.0,30.0,15.0,5.0,15.0,30.0,30.0,60.0,RR,60.094826636662326,
14.0,1.0,resp2,stim/left_resp_img.png,"[0.5, 0]",left,stim/silver_coin.png,silver,,,,,training,,,silver,deval,,,,,0.0,0.0,0.0,0.0,4.0,1.0,9.0,1.0,,,,,,,,,0.0,training_resp,,623.2386205517687,31.62950156861916,9.0,,left,silver,0.0,270.0,2.0,right,2023_Dec_12_1135,habits_v_MRI,5.0,40.0,1.0,5.0,30.0,15.0,5.0,15.0,30.0,30.0,60.0,RR,60.094826636662326,
14.0,1.0,resp2,stim/left_resp_img.png,"[0.5, 0]",left,stim/silver_coin.png,silver,,,,,training,,,silver,deval,,,,,0.0,0.0,0.0,0.0,4.0,1.0,9.0,1.0,,,,,,,,,0.0,training_resp,,624.0218376670964,32.41282102651894,9.0,,left,silver,0.0,270.0,2.0,right,2023_Dec_12_1135,habits_v_MRI,5.0,40.0,1.0,5.0,30.0,15.0,5.0,15.0,30.0,30.0,60.0,RR,60.094826636662326,
14.0,1.0,resp2,stim/left_resp_img.png,"[0.5, 0]",left,stim/silver_coin.png,silver,,,,,training,,,silver,deval,,,,,0.0,0.0,0.0,0.0,4.0,1.0,9.0,1.0,,,,,,,,,0.0,training_resp,,624.8217316297814,33.212739328388125,9.0,,left,silver,0.0,270.0,2.0,right,2023_Dec_12_1135,habits_v_MRI,5.0,40.0,1.0,5.0,30.0,15.0,5.0,15.0,30.0,30.0,60.0,RR,60.094826636662326,
14.0,1.0,resp2,stim/left_resp_img.png,"[0.5, 0]",left,stim/silver_coin.png,silver,,,,,training,,,silver,deval,,,,,0.0,0.0,0.0,0.0,4.0,1.0,9.0,1.0,,,,,,,,,0.0,training_resp,,625.6883051227778,34.079376748763025,9.0,,left,silver,0.0,270.0,2.0,right,2023_Dec_12_1135,habits_v_MRI,5.0,40.0,1.0,5.0,30.0,15.0,5.0,15.0,30.0,30.0,60.0,RR,60.094826636662326,
14.0,1.0,resp2,stim/left_resp_img.png,"[0.5, 0]",left,stim/silver_coin.png,silver,,,,,training,,,silver,deval,,,,,0.0,0.0,0.0,0.0,4.0,1.0,9.0,1.0,,,,,,,,,0.0,training_resp,,625.8882627780549,34.27934730704874,9.0,,left,silver,0.0,270.0,2.0,right,2023_Dec_12_1135,habits_v_MRI,5.0,40.0,1.0,5.0,30.0,15.0,5.0,15.0,30.0,30.0,60.0,RR,60.094826636662326,
14.0,1.0,resp2,stim/left_resp_img.png,"[0.5, 0]",left,stim/silver_coin.png,silver,,,,,training,,,silver,deval,,,,,0.0,0.0,0.0,0.0,4.0,1.0,9.0,1.0,,,,,,,,,0.0,training_resp,,626.6882942724042,35.079284376464784,9.0,8.0,left,silver,1.0,270.0,2.0,right,2023_Dec_12_1135,habits_v_MRI,5.0,40.0,1.0,5.0,30.0,15.0,5.0,15.0,30.0,30.0,60.0,RR,60.094826636662326,
14.0,1.0,resp2,stim/left_resp_img.png,"[0.5, 0]",left,stim/silver_coin.png,silver,,,,,training,,,silver,deval,,,,,0.0,0.0,0.0,0.0,4.0,1.0,9.0,1.0,,,,,,,,,0.0,training_resp,,627.8548234561458,36.24591267667711,9.0,,left,silver,0.0,270.0,2.0,right,2023_Dec_12_1135,habits_v_MRI,5.0,40.0,1.0,5.0,30.0,15.0,5.0,15.0,30.0,30.0,60.0,RR,60.094826636662326,
14.0,1.0,resp2,stim/left_resp_img.png,"[0.5, 0]",left,stim/silver_coin.png,silver,,,,,training,,,silver,deval,,,,,0.0,0.0,0.0,0.0,4.0,1.0,9.0,1.0,,,,,,,,,0.0,training_resp,,628.6714414781891,37.0624952162616,9.0,,left,silver,0.0,270.0,2.0,right,2023_Dec_12_1135,habits_v_MRI,5.0,40.0,1.0,5.0,30.0,15.0,5.0,15.0,30.0,30.0,60.0,RR,60.094826636662326,
14.0,1.0,resp2,stim/left_resp_img.png,"[0.5, 0]",left,stim/silver_coin.png,silver,,,,,training,,,silver,deval,,,,,0.0,0.0,0.0,0.0,4.0,1.0,9.0,1.0,,,,,,,,,0.0,training_resp,,629.5547789121047,37.945786317810416,9.0,,left,silver,0.0,270.0,2.0,right,2023_Dec_12_1135,habits_v_MRI,5.0,40.0,1.0,5.0,30.0,15.0,5.0,15.0,30.0,30.0,60.0,RR,60.094826636662326,
14.0,1.0,resp2,stim/left_resp_img.png,"[0.5, 0]",left,stim/silver_coin.png,silver,,,,,training,,,silver,deval,,,,,0.0,0.0,0.0,0.0,4.0,1.0,9.0,1.0,,,,,,,,,0.0,training_resp,,630.337970808614,38.72900812514126,9.0,,left,silver,0.0,270.0,2.0,right,2023_Dec_12_1135,habits_v_MRI,5.0,40.0,1.0,5.0,30.0,15.0,5.0,15.0,30.0,30.0,60.0,RR,60.094826636662326,
14.0,1.0,resp2,stim/left_resp_img.png,"[0.5, 0]",left,stim/silver_coin.png,silver,,,,,training,,,silver,deval,,,,,0.0,0.0,0.0,0.0,4.0,1.0,9.0,1.0,,,,,,,,,0.0,training_resp,,631.3546555731446,39.74567470839247,9.0,,left,silver,0.0,270.0,2.0,right,2023_Dec_12_1135,habits_v_MRI,5.0,40.0,1.0,5.0,30.0,15.0,5.0,15.0,30.0,30.0,60.0,RR,60.094826636662326,
14.0,1.0,resp2,stim/left_resp_img.png,"[0.5, 0]",left,stim/silver_coin.png,silver,,,,,training,,,silver,deval,,,,,0.0,0.0,0.0,0.0,4.0,1.0,9.0,1.0,,,,,,,,,0.0,training_resp,,632.1878319717944,40.57893409533426,9.0,,left,silver,0.0,270.0,2.0,right,2023_Dec_12_1135,habits_v_MRI,5.0,40.0,1.0,5.0,30.0,15.0,5.0,15.0,30.0,30.0,60.0,RR,60.094826636662326,
14.0,1.0,resp2,stim/left_resp_img.png,"[0.5, 0]",left,stim/silver_coin.png,silver,,,,,training,,,silver,deval,,,,,0.0,0.0,0.0,0.0,4.0,1.0,9.0,1.0,,,,,,,,,0.0,training_resp,,633.0045582014136,41.39555241074413,9.0,,left,silver,0.0,270.0,2.0,right,2023_Dec_12_1135,habits_v_MRI,5.0,40.0,1.0,5.0,30.0,15.0,5.0,15.0,30.0,30.0,60.0,RR,60.094826636662326,
14.0,1.0,resp2,stim/left_resp_img.png,"[0.5, 0]",left,stim/silver_coin.png,silver,,,,,training,,,silver,deval,,,,,0.0,0.0,0.0,0.0,4.0,1.0,9.0,1.0,,,,,,,,,0.0,training_resp,,633.7377104656771,42.12879382120445,9.0,26.0,left,silver,1.0,270.0,2.0,right,2023_Dec_12_1135,habits_v_MRI,5.0,40.0,1.0,5.0,30.0,15.0,5.0,15.0,30.0,30.0,60.0,RR,60.094826636662326,
14.0,1.0,resp2,stim/left_resp_img.png,"[0.5, 0]",left,stim/silver_coin.png,silver,,,,,training,,,silver,deval,,,,,0.0,0.0,0.0,0.0,4.0,1.0,9.0,1.0,,,,,,,,,0.0,training_resp,,634.7544295401312,43.14545072801411,9.0,,left,silver,0.0,270.0,2.0,right,2023_Dec_12_1135,habits_v_MRI,5.0,40.0,1.0,5.0,30.0,15.0,5.0,15.0,30.0,30.0,60.0,RR,60.094826636662326,
14.0,1.0,resp2,stim/left_resp_img.png,"[0.5, 0]",left,stim/silver_coin.png,silver,,,,,training,,,silver,deval,,,,,0.0,0.0,0.0,0.0,4.0,1.0,9.0,1.0,,,,,,,,,0.0,training_resp,,635.5376774463803,43.92871095053852,9.0,,left,silver,0.0,270.0,2.0,right,2023_Dec_12_1135,habits_v_MRI,5.0,40.0,1.0,5.0,30.0,15.0,5.0,15.0,30.0,30.0,60.0,RR,60.094826636662326,
14.0,1.0,resp2,stim/left_resp_img.png,"[0.5, 0]",left,stim/silver_coin.png,silver,,,,,training,,,silver,deval,,,,,0.0,0.0,0.0,0.0,4.0,1.0,9.0,1.0,,,,,,,,,0.0,training_resp,,636.3376159821637,44.72865857696161,9.0,,left,silver,0.0,270.0,2.0,right,2023_Dec_12_1135,habits_v_MRI,5.0,40.0,1.0,5.0,30.0,15.0,5.0,15.0,30.0,30.0,60.0,RR,60.094826636662326,
14.0,1.0,resp2,stim/left_resp_img.png,"[0.5, 0]",left,stim/silver_coin.png,silver,,,,,training,,,silver,deval,,,,,0.0,0.0,0.0,0.0,4.0,1.0,9.0,1.0,,,,,,,,,0.0,training_resp,,637.1375993844122,45.528592127375305,9.0,,left,silver,0.0,270.0,2.0,right,2023_Dec_12_1135,habits_v_MRI,5.0,40.0,1.0,5.0,30.0,15.0,5.0,15.0,30.0,30.0,60.0,RR,60.094826636662326,
14.0,1.0,resp2,stim/left_resp_img.png,"[0.5, 0]",left,stim/silver_coin.png,silver,,,,,training,,,silver,deval,,,,,0.0,0.0,0.0,0.0,4.0,1.0,9.0,1.0,,,,,,,,,0.0,training_resp,,637.887597404886,46.27855789102614,9.0,,left,silver,0.0,270.0,2.0,right,2023_Dec_12_1135,habits_v_MRI,5.0,40.0,1.0,5.0,30.0,15.0,5.0,15.0,30.0,30.0,60.0,RR,60.094826636662326,
14.0,1.0,resp2,stim/left_resp_img.png,"[0.5, 0]",left,stim/silver_coin.png,silver,,,,,training,,,silver,deval,,,,,0.0,0.0,0.0,0.0,4.0,1.0,9.0,1.0,,,,,,,,,0.0,training_resp,,638.6875327150337,47.07849349454045,9.0,,left,silver,0.0,270.0,2.0,right,2023_Dec_12_1135,habits_v_MRI,5.0,40.0,1.0,5.0,30.0,15.0,5.0,15.0,30.0,30.0,60.0,RR,60.094826636662326,
14.0,1.0,resp2,stim/left_resp_img.png,"[0.5, 0]",left,stim/silver_coin.png,silver,,,,,training,,,silver,deval,,,,,0.0,0.0,0.0,0.0,4.0,1.0,9.0,1.0,,,,,,,,,0.0,training_resp,,639.4540715171024,47.84510150225833,9.0,,left,silver,0.0,270.0,2.0,right,2023_Dec_12_1135,habits_v_MRI,5.0,40.0,1.0,5.0,30.0,15.0,5.0,15.0,30.0,30.0,60.0,RR,60.094826636662326,
14.0,1.0,resp2,stim/left_resp_img.png,"[0.5, 0]",left,stim/silver_coin.png,silver,,,,,training,,,silver,deval,,,,,0.0,0.0,0.0,0.0,4.0,1.0,9.0,1.0,,,,,,,,,0.0,training_resp,,640.2539883530699,48.64504854241386,9.0,,left,silver,0.0,270.0,2.0,right,2023_Dec_12_1135,habits_v_MRI,5.0,40.0,1.0,5.0,30.0,15.0,5.0,15.0,30.0,30.0,60.0,RR,60.094826636662326,
14.0,1.0,resp2,stim/left_resp_img.png,"[0.5, 0]",left,stim/silver_coin.png,silver,,,,,training,,,silver,deval,,,,,0.0,0.0,0.0,0.0,4.0,1.0,9.0,1.0,,,,,,,,,0.0,training_resp,,641.0372016560286,49.42828002665192,9.0,,left,silver,0.0,270.0,2.0,right,2023_Dec_12_1135,habits_v_MRI,5.0,40.0,1.0,5.0,30.0,15.0,5.0,15.0,30.0,30.0,60.0,RR,60.094826636662326,
14.0,1.0,resp2,stim/left_resp_img.png,"[0.5, 0]",left,stim/silver_coin.png,silver,,,,,training,,,silver,deval,,,,,0.0,0.0,0.0,0.0,4.0,1.0,9.0,1.0,,,,,,,,,0.0,training_resp,,641.8372299247421,50.22823410434648,9.0,,left,silver,0.0,270.0,2.0,right,2023_Dec_12_1135,habits_v_MRI,5.0,40.0,1.0,5.0,30.0,15.0,5.0,15.0,30.0,30.0,60.0,RR,60.094826636662326,
14.0,1.0,resp2,stim/left_resp_img.png,"[0.5, 0]",left,stim/silver_coin.png,silver,,,,,training,,,silver,deval,,,,,0.0,0.0,0.0,0.0,4.0,1.0,9.0,1.0,,,,,,,,,0.0,training_resp,,642.6205625790171,51.01154828397557,9.0,,left,silver,0.0,270.0,2.0,right,2023_Dec_12_1135,habits_v_MRI,5.0,40.0,1.0,5.0,30.0,15.0,5.0,15.0,30.0,30.0,60.0,RR,60.094826636662326,
14.0,1.0,resp2,stim/left_resp_img.png,"[0.5, 0]",left,stim/silver_coin.png,silver,,,,,training,,,silver,deval,,,,,0.0,0.0,0.0,0.0,4.0,1.0,9.0,1.0,,,,,,,,,0.0,training_resp,,643.4370970260352,51.82816513348371,9.0,,left,silver,0.0,270.0,2.0,right,2023_Dec_12_1135,habits_v_MRI,5.0,40.0,1.0,5.0,30.0,15.0,5.0,15.0,30.0,30.0,60.0,RR,60.094826636662326,
14.0,1.0,resp2,stim/left_resp_img.png,"[0.5, 0]",left,stim/silver_coin.png,silver,,,,,training,,,silver,deval,,,,,0.0,0.0,0.0,0.0,4.0,1.0,9.0,1.0,,,,,,,,,0.0,training_resp,,644.1704126279801,52.56143704149872,9.0,,left,silver,0.0,270.0,2.0,right,2023_Dec_12_1135,habits_v_MRI,5.0,40.0,1.0,5.0,30.0,15.0,5.0,15.0,30.0,30.0,60.0,RR,60.094826636662326,
14.0,1.0,resp2,stim/left_resp_img.png,"[0.5, 0]",left,stim/silver_coin.png,silver,,,,,training,,,silver,deval,,,,,0.0,0.0,0.0,0.0,4.0,1.0,9.0,1.0,,,,,,,,,0.0,training_resp,,644.953760237433,53.34477673331276,9.0,,left,silver,0.0,270.0,2.0,right,2023_Dec_12_1135,habits_v_MRI,5.0,40.0,1.0,5.0,30.0,15.0,5.0,15.0,30.0,30.0,60.0,RR,60.094826636662326,
14.0,1.0,resp2,stim/left_resp_img.png,"[0.5, 0]",left,stim/silver_coin.png,silver,,,,,training,,,silver,deval,,,,,0.0,0.0,0.0,0.0,4.0,1.0,9.0,1.0,,,,,,,,,0.0,training_resp,,645.7535756104626,54.14468154590577,9.0,,left,silver,0.0,270.0,2.0,right,2023_Dec_12_1135,habits_v_MRI,5.0,40.0,1.0,5.0,30.0,15.0,5.0,15.0,30.0,30.0,60.0,RR,60.094826636662326,
14.0,1.0,resp2,stim/left_resp_img.png,"[0.5, 0]",left,stim/silver_coin.png,silver,,,,,training,,,silver,deval,,,,,0.0,0.0,0.0,0.0,4.0,1.0,9.0,1.0,,,,,,,,,0.0,training_resp,,646.5371651472524,54.92800129717216,9.0,,left,silver,0.0,270.0,2.0,right,2023_Dec_12_1135,habits_v_MRI,5.0,40.0,1.0,5.0,30.0,15.0,5.0,15.0,30.0,30.0,60.0,RR,60.094826636662326,
14.0,1.0,resp2,stim/left_resp_img.png,"[0.5, 0]",left,stim/silver_coin.png,silver,,,,,training,,,silver,deval,,,,,0.0,0.0,0.0,0.0,4.0,1.0,9.0,1.0,,,,,,,,,0.0,training_resp,,647.3705007773824,55.76129587320611,9.0,,left,silver,0.0,270.0,2.0,right,2023_Dec_12_1135,habits_v_MRI,5.0,40.0,1.0,5.0,30.0,15.0,5.0,15.0,30.0,30.0,60.0,RR,60.094826636662326,
14.0,1.0,resp2,stim/left_resp_img.png,"[0.5, 0]",left,stim/silver_coin.png,silver,,,,,training,,,silver,deval,,,,,0.0,0.0,0.0,0.0,4.0,1.0,9.0,1.0,,,,,,,,,0.0,training_resp,,648.1369225746021,56.52789889601991,9.0,,left,silver,0.0,270.0,2.0,right,2023_Dec_12_1135,habits_v_MRI,5.0,40.0,1.0,5.0,30.0,15.0,5.0,15.0,30.0,30.0,60.0,RR,60.094826636662326,
14.0,1.0,resp2,stim/left_resp_img.png,"[0.5, 0]",left,stim/silver_coin.png,silver,,,,,training,,,silver,deval,,,,,0.0,0.0,0.0,0.0,4.0,1.0,9.0,1.0,,,,,,,,,0.0,training_resp,,648.9368253345601,57.32782188989222,9.0,,left,silver,0.0,270.0,2.0,right,2023_Dec_12_1135,habits_v_MRI,5.0,40.0,1.0,5.0,30.0,15.0,5.0,15.0,30.0,30.0,60.0,RR,60.094826636662326,
14.0,1.0,resp2,stim/left_resp_img.png,"[0.5, 0]",left,stim/silver_coin.png,silver,,,,,training,,,silver,deval,,,,,0.0,0.0,0.0,0.0,4.0,1.0,9.0,1.0,,,,,,,,,0.0,training_resp,,649.7534187245183,58.14444577693939,9.0,,left,silver,0.0,270.0,2.0,right,2023_Dec_12_1135,habits_v_MRI,5.0,40.0,1.0,5.0,30.0,15.0,5.0,15.0,30.0,30.0,60.0,RR,60.094826636662326,
14.0,1.0,resp2,stim/left_resp_img.png,"[0.5, 0]",left,stim/silver_coin.png,silver,,,,,training,,,silver,deval,,,,,0.0,0.0,0.0,0.0,4.0,1.0,9.0,1.0,,,,,,,,,0.0,training_resp,,650.5865394063294,58.97763830376789,9.0,,left,silver,0.0,270.0,2.0,right,2023_Dec_12_1135,habits_v_MRI,5.0,40.0,1.0,5.0,30.0,15.0,5.0,15.0,30.0,30.0,60.0,RR,60.094826636662326,
14.0,1.0,resp2,stim/left_resp_img.png,"[0.5, 0]",left,stim/silver_coin.png,silver,,,,,training,,,silver,deval,,,,,0.0,0.0,0.0,0.0,4.0,1.0,9.0,1.0,,,,,,,,,0.0,ITI_start,26.666666666666668,651.2876009824686,59.67769727529958,,,,,,270.0,2.0,right,2023_Dec_12_1135,habits_v_MRI,5.0,40.0,1.0,5.0,30.0,15.0,5.0,15.0,30.0,30.0,60.0,RR,60.094826636662326,
14.0,2.0,resp1_vs_resp2,,,,,silver,,,,,consumption,right,left,,,silver,gold,val,val,0.0,0.0,0.0,0.0,,,,,,,,,,,,,0.0,piggy_getting_full_msg,7.0,677.9669413100928,,,,,,,270.0,2.0,right,2023_Dec_12_1135,habits_v_MRI,5.0,40.0,1.0,5.0,30.0,15.0,5.0,15.0,30.0,30.0,60.0,RR,60.094826636662326,
14.0,2.0,resp1_vs_resp2,,,,,silver,,,,,consumption,right,left,,,silver,gold,val,val,0.0,0.0,0.0,0.0,,,,,,,,,,,,,0.0,instr_before_consumption,7.0,684.9830246292986,,,,,,,270.0,2.0,right,2023_Dec_12_1135,habits_v_MRI,5.0,40.0,1.0,5.0,30.0,15.0,5.0,15.0,30.0,30.0,60.0,RR,60.094826636662326,
14.0,2.0,resp1_vs_resp2,,,,,silver,,,,,consumption,right,left,,,silver,gold,val,val,0.0,0.0,0.0,0.0,,,,,,,,,,,,,0.0,consumption_start,15.0,692.0001093805768,0.0,,,,,,270.0,2.0,right,2023_Dec_12_1135,habits_v_MRI,5.0,40.0,1.0,5.0,30.0,15.0,5.0,15.0,30.0,30.0,60.0,RR,60.094826636662326,
14.0,2.0,resp1_vs_resp2,,,,,silver,,,,,consumption,right,left,,,silver,gold,val,val,0.0,0.0,0.0,0.0,,,,,,,,,,,,,0.0,consumption_resp,,693.1656453427859,1.1649219077080488,,,left,gold,,270.0,2.0,right,2023_Dec_12_1135,habits_v_MRI,5.0,40.0,1.0,5.0,30.0,15.0,5.0,15.0,30.0,30.0,60.0,RR,60.094826636662326,
14.0,2.0,resp1_vs_resp2,,,,,silver,,,,,consumption,right,left,,,silver,gold,val,val,0.0,0.0,0.0,0.0,,,,,,,,,,,,,0.0,consumption_resp,,693.7322411518544,1.7318751821294427,,,left,gold,,270.0,2.0,right,2023_Dec_12_1135,habits_v_MRI,5.0,40.0,1.0,5.0,30.0,15.0,5.0,15.0,30.0,30.0,60.0,RR,60.094826636662326,
14.0,2.0,resp1_vs_resp2,,,,,silver,,,,,consumption,right,left,,,silver,gold,val,val,0.0,0.0,0.0,0.0,,,,,,,,,,,,,0.0,consumption_resp,,694.2155040428042,2.215160946361721,,,left,gold,,270.0,2.0,right,2023_Dec_12_1135,habits_v_MRI,5.0,40.0,1.0,5.0,30.0,15.0,5.0,15.0,30.0,30.0,60.0,RR,60.094826636662326,
14.0,2.0,resp1_vs_resp2,,,,,silver,,,,,consumption,right,left,,,silver,gold,val,val,0.0,0.0,0.0,0.0,,,,,,,,,,,,,0.0,consumption_resp,,694.6654314207844,2.665096534881741,,,left,gold,,270.0,2.0,right,2023_Dec_12_1135,habits_v_MRI,5.0,40.0,1.0,5.0,30.0,15.0,5.0,15.0,30.0,30.0,60.0,RR,60.094826636662326,
14.0,2.0,resp1_vs_resp2,,,,,silver,,,,,consumption,right,left,,,silver,gold,val,val,0.0,0.0,0.0,0.0,,,,,,,,,,,,,0.0,consumption_resp,,695.1152887130156,3.11512361606583,,,left,gold,,270.0,2.0,right,2023_Dec_12_1135,habits_v_MRI,5.0,40.0,1.0,5.0,30.0,15.0,5.0,15.0,30.0,30.0,60.0,RR,60.094826636662326,
14.0,2.0,resp1_vs_resp2,,,,,silver,,,,,consumption,right,left,,,silver,gold,val,val,0.0,0.0,0.0,0.0,,,,,,,,,,,,,0.0,consumption_resp,,695.5322676612996,3.5317283836193383,,,left,gold,,270.0,2.0,right,2023_Dec_12_1135,habits_v_MRI,5.0,40.0,1.0,5.0,30.0,15.0,5.0,15.0,30.0,30.0,60.0,RR,60.094826636662326,
14.0,2.0,resp1_vs_resp2,,,,,silver,,,,,consumption,right,left,,,silver,gold,val,val,0.0,0.0,0.0,0.0,,,,,,,,,,,,,0.0,consumption_resp,,695.9653789005242,3.965031112078577,,,left,gold,,270.0,2.0,right,2023_Dec_12_1135,habits_v_MRI,5.0,40.0,1.0,5.0,30.0,15.0,5.0,15.0,30.0,30.0,60.0,RR,60.094826636662326,
14.0,2.0,resp1_vs_resp2,,,,,silver,,,,,consumption,right,left,,,silver,gold,val,val,0.0,0.0,0.0,0.0,,,,,,,,,,,,,0.0,consumption_resp,,696.9484683368355,4.948367753997445,,,left,gold,,270.0,2.0,right,2023_Dec_12_1135,habits_v_MRI,5.0,40.0,1.0,5.0,30.0,15.0,5.0,15.0,30.0,30.0,60.0,RR,60.094826636662326,
14.0,2.0,resp1_vs_resp2,,,,,silver,,,,,consumption,right,left,,,silver,gold,val,val,0.0,0.0,0.0,0.0,,,,,,,,,,,,,0.0,consumption_resp,,697.4820292089134,5.481678488198668,,,left,gold,,270.0,2.0,right,2023_Dec_12_1135,habits_v_MRI,5.0,40.0,1.0,5.0,30.0,15.0,5.0,15.0,30.0,30.0,60.0,RR,60.094826636662326,
14.0,2.0,resp1_vs_resp2,,,,,silver,,,,,consumption,right,left,,,silver,gold,val,val,0.0,0.0,0.0,0.0,,,,,,,,,,,,,0.0,consumption_resp,,697.9986012210138,5.998252552933991,,,left,gold,,270.0,2.0,right,2023_Dec_12_1135,habits_v_MRI,5.0,40.0,1.0,5.0,30.0,15.0,5.0,15.0,30.0,30.0,60.0,RR,60.094826636662326,
14.0,2.0,resp1_vs_resp2,,,,,silver,,,,,consumption,right,left,,,silver,gold,val,val,0.0,0.0,0.0,0.0,,,,,,,,,,,,,0.0,instr_after_consumption,3.0,706.9973651929758,14.99772940343246,,,,,,270.0,2.0,right,2023_Dec_12_1135,habits_v_MRI,5.0,40.0,1.0,5.0,30.0,15.0,5.0,15.0,30.0,30.0,60.0,RR,60.094826636662326,
14.0,2.0,resp1_vs_resp2,,,,,silver,,,,,consumption,right,left,,,silver,gold,val,val,0.0,0.0,0.0,0.0,,,,,,,,,,,,,0.0,rest_after_block,3.0,710.0147780855186,,,,,,,270.0,2.0,right,2023_Dec_12_1135,habits_v_MRI,5.0,40.0,1.0,5.0,30.0,15.0,5.0,15.0,30.0,30.0,60.0,RR,60.094826636662326,
14.0,0.0,resp1,stim/right_resp_img.png,"[-0.5, 0]",right,stim/gold_coin.png,silver,,,,,training,,,gold,val,,,,,0.0,1.0,1.0,1.0,0.0,0.0,0.0,0.0,,,,,,,,,1.0,instr_before_block,6.0,0.0042980927973985,,,,,,,270.0,2.0,right,2023_Dec_12_1135,habits_v_MRI,5.0,40.0,1.0,5.0,30.0,15.0,5.0,15.0,30.0,30.0,60.0,RR,60.094826636662326,
14.0,0.0,resp1,stim/right_resp_img.png,"[-0.5, 0]",right,stim/gold_coin.png,silver,,,,,training,,,gold,val,,,,,0.0,1.0,1.0,1.0,0.0,0.0,0.0,0.0,,,,,,,,,1.0,training_period_start,52.5,6.041331426240504,0.0,10.0,14.0,,,,270.0,2.0,right,2023_Dec_12_1135,habits_v_MRI,5.0,40.0,1.0,5.0,30.0,15.0,5.0,15.0,30.0,30.0,60.0,RR,60.094826636662326,
14.0,0.0,resp1,stim/right_resp_img.png,"[-0.5, 0]",right,stim/gold_coin.png,silver,,,,,training,,,gold,val,,,,,0.0,1.0,1.0,1.0,0.0,0.0,0.0,0.0,,,,,,,,,1.0,training_resp,,7.587550221942365,1.565241309814155,10.0,,right,gold,0.0,270.0,2.0,right,2023_Dec_12_1135,habits_v_MRI,5.0,40.0,1.0,5.0,30.0,15.0,5.0,15.0,30.0,30.0,60.0,RR,60.094826636662326,
14.0,0.0,resp1,stim/right_resp_img.png,"[-0.5, 0]",right,stim/gold_coin.png,silver,,,,,training,,,gold,val,,,,,0.0,1.0,1.0,1.0,0.0,0.0,0.0,0.0,,,,,,,,,1.0,training_resp,,9.270545849110931,3.248480330687016,10.0,,right,gold,0.0,270.0,2.0,right,2023_Dec_12_1135,habits_v_MRI,5.0,40.0,1.0,5.0,30.0,15.0,5.0,15.0,30.0,30.0,60.0,RR,60.094826636662326,
14.0,0.0,resp1,stim/right_resp_img.png,"[-0.5, 0]",right,stim/gold_coin.png,silver,,,,,training,,,gold,val,,,,,0.0,1.0,1.0,1.0,0.0,0.0,0.0,0.0,,,,,,,,,1.0,training_resp,,10.40367969777435,4.381696287542582,10.0,,right,gold,0.0,270.0,2.0,right,2023_Dec_12_1135,habits_v_MRI,5.0,40.0,1.0,5.0,30.0,15.0,5.0,15.0,30.0,30.0,60.0,RR,60.094826636662326,
14.0,0.0,resp1,stim/right_resp_img.png,"[-0.5, 0]",right,stim/gold_coin.png,silver,,,,,training,,,gold,val,,,,,0.0,1.0,1.0,1.0,0.0,0.0,0.0,0.0,,,,,,,,,1.0,training_resp,,10.687069681007417,4.665074247866869,10.0,,right,gold,0.0,270.0,2.0,right,2023_Dec_12_1135,habits_v_MRI,5.0,40.0,1.0,5.0,30.0,15.0,5.0,15.0,30.0,30.0,60.0,RR,60.094826636662326,
14.0,0.0,resp1,stim/right_resp_img.png,"[-0.5, 0]",right,stim/gold_coin.png,silver,,,,,training,,,gold,val,,,,,0.0,1.0,1.0,1.0,0.0,0.0,0.0,0.0,,,,,,,,,1.0,training_resp,,11.637103360146284,5.6149747939780354,10.0,,right,gold,0.0,270.0,2.0,right,2023_Dec_12_1135,habits_v_MRI,5.0,40.0,1.0,5.0,30.0,15.0,5.0,15.0,30.0,30.0,60.0,RR,60.094826636662326,
14.0,0.0,resp1,stim/right_resp_img.png,"[-0.5, 0]",right,stim/gold_coin.png,silver,,,,,training,,,gold,val,,,,,0.0,1.0,1.0,1.0,0.0,0.0,0.0,0.0,,,,,,,,,1.0,training_resp,,12.68700135499239,6.6649246932938695,10.0,,right,gold,0.0,270.0,2.0,right,2023_Dec_12_1135,habits_v_MRI,5.0,40.0,1.0,5.0,30.0,15.0,5.0,15.0,30.0,30.0,60.0,RR,60.094826636662326,
14.0,0.0,resp1,stim/right_resp_img.png,"[-0.5, 0]",right,stim/gold_coin.png,silver,,,,,training,,,gold,val,,,,,0.0,1.0,1.0,1.0,0.0,0.0,0.0,0.0,,,,,,,,,1.0,training_resp,,13.020235962234436,6.998219122644514,10.0,,right,gold,0.0,270.0,2.0,right,2023_Dec_12_1135,habits_v_MRI,5.0,40.0,1.0,5.0,30.0,15.0,5.0,15.0,30.0,30.0,60.0,RR,60.094826636662326,
14.0,0.0,resp1,stim/right_resp_img.png,"[-0.5, 0]",right,stim/gold_coin.png,silver,,,,,training,,,gold,val,,,,,0.0,1.0,1.0,1.0,0.0,0.0,0.0,0.0,,,,,,,,,1.0,training_resp,,14.020247692242265,7.998185106087476,10.0,,right,gold,0.0,270.0,2.0,right,2023_Dec_12_1135,habits_v_MRI,5.0,40.0,1.0,5.0,30.0,15.0,5.0,15.0,30.0,30.0,60.0,RR,60.094826636662326,
14.0,0.0,resp1,stim/right_resp_img.png,"[-0.5, 0]",right,stim/gold_coin.png,silver,,,,,training,,,gold,val,,,,,0.0,1.0,1.0,1.0,0.0,0.0,0.0,0.0,,,,,,,,,1.0,training_resp,,15.036725132726133,9.014737030956894,10.0,,right,gold,0.0,270.0,2.0,right,2023_Dec_12_1135,habits_v_MRI,5.0,40.0,1.0,5.0,30.0,15.0,5.0,15.0,30.0,30.0,60.0,RR,60.094826636662326,
14.0,0.0,resp1,stim/right_resp_img.png,"[-0.5, 0]",right,stim/gold_coin.png,silver,,,,,training,,,gold,val,,,,,0.0,1.0,1.0,1.0,0.0,0.0,0.0,0.0,,,,,,,,,1.0,training_resp,,16.18663875758648,10.16462484980002,10.0,,right,gold,0.0,270.0,2.0,right,2023_Dec_12_1135,habits_v_MRI,5.0,40.0,1.0,5.0,30.0,15.0,5.0,15.0,30.0,30.0,60.0,RR,60.094826636662326,
14.0,0.0,resp1,stim/right_resp_img.png,"[-0.5, 0]",right,stim/gold_coin.png,silver,,,,,training,,,gold,val,,,,,0.0,1.0,1.0,1.0,0.0,0.0,0.0,0.0,,,,,,,,,1.0,training_resp,,17.053357406519353,11.031261390540749,10.0,,right,gold,0.0,270.0,2.0,right,2023_Dec_12_1135,habits_v_MRI,5.0,40.0,1.0,5.0,30.0,15.0,5.0,15.0,30.0,30.0,60.0,RR,60.094826636662326,
14.0,0.0,resp1,stim/right_resp_img.png,"[-0.5, 0]",right,stim/gold_coin.png,silver,,,,,training,,,gold,val,,,,,0.0,1.0,1.0,1.0,0.0,0.0,0.0,0.0,,,,,,,,,1.0,training_resp,,17.353333917912096,11.331273677758873,10.0,,right,gold,0.0,270.0,2.0,right,2023_Dec_12_1135,habits_v_MRI,5.0,40.0,1.0,5.0,30.0,15.0,5.0,15.0,30.0,30.0,60.0,RR,60.094826636662326,
14.0,0.0,resp1,stim/right_resp_img.png,"[-0.5, 0]",right,stim/gold_coin.png,silver,,,,,training,,,gold,val,,,,,0.0,1.0,1.0,1.0,0.0,0.0,0.0,0.0,,,,,,,,,1.0,training_resp,,18.220121479593217,12.19785714102909,10.0,,right,gold,0.0,270.0,2.0,right,2023_Dec_12_1135,habits_v_MRI,5.0,40.0,1.0,5.0,30.0,15.0,5.0,15.0,30.0,30.0,60.0,RR,60.094826636662326,
14.0,0.0,resp1,stim/right_resp_img.png,"[-0.5, 0]",right,stim/gold_coin.png,silver,,,,,training,,,gold,val,,,,,0.0,1.0,1.0,1.0,0.0,0.0,0.0,0.0,,,,,,,,,1.0,training_resp,,19.186479232274,13.16448379913345,10.0,18.0,right,gold,1.0,270.0,2.0,right,2023_Dec_12_1135,habits_v_MRI,5.0,40.0,1.0,5.0,30.0,15.0,5.0,15.0,30.0,30.0,60.0,RR,60.094826636662326,
14.0,0.0,resp1,stim/right_resp_img.png,"[-0.5, 0]",right,stim/gold_coin.png,silver,,,,,training,,,gold,val,,,,,0.0,1.0,1.0,1.0,0.0,0.0,0.0,0.0,,,,,,,,,1.0,training_resp,,20.51964199449867,14.49766650237143,10.0,,right,gold,0.0,270.0,2.0,right,2023_Dec_12_1135,habits_v_MRI,5.0,40.0,1.0,5.0,30.0,15.0,5.0,15.0,30.0,30.0,60.0,RR,60.094826636662326,
14.0,0.0,resp1,stim/right_resp_img.png,"[-0.5, 0]",right,stim/gold_coin.png,silver,,,,,training,,,gold,val,,,,,0.0,1.0,1.0,1.0,0.0,0.0,0.0,0.0,,,,,,,,,1.0,training_resp,,21.35311193112284,15.331040547695013,10.0,,right,gold,0.0,270.0,2.0,right,2023_Dec_12_1135,habits_v_MRI,5.0,40.0,1.0,5.0,30.0,15.0,5.0,15.0,30.0,30.0,60.0,RR,60.094826636662326,
14.0,0.0,resp1,stim/right_resp_img.png,"[-0.5, 0]",right,stim/gold_coin.png,silver,,,,,training,,,gold,val,,,,,0.0,1.0,1.0,1.0,0.0,0.0,0.0,0.0,,,,,,,,,1.0,training_resp,,22.25298633426428,16.230951899662614,10.0,,right,gold,0.0,270.0,2.0,right,2023_Dec_12_1135,habits_v_MRI,5.0,40.0,1.0,5.0,30.0,15.0,5.0,15.0,30.0,30.0,60.0,RR,60.094826636662326,
14.0,0.0,resp1,stim/right_resp_img.png,"[-0.5, 0]",right,stim/gold_coin.png,silver,,,,,training,,,gold,val,,,,,0.0,1.0,1.0,1.0,0.0,0.0,0.0,0.0,,,,,,,,,1.0,training_resp,,22.569576058536768,16.54756654985249,10.0,,right,gold,0.0,270.0,2.0,right,2023_Dec_12_1135,habits_v_MRI,5.0,40.0,1.0,5.0,30.0,15.0,5.0,15.0,30.0,30.0,60.0,RR,60.094826636662326,
14.0,0.0,resp1,stim/right_resp_img.png,"[-0.5, 0]",right,stim/gold_coin.png,silver,,,,,training,,,gold,val,,,,,0.0,1.0,1.0,1.0,0.0,0.0,0.0,0.0,,,,,,,,,1.0,training_resp,,23.486261321697384,17.46415240271017,10.0,,right,gold,0.0,270.0,2.0,right,2023_Dec_12_1135,habits_v_MRI,5.0,40.0,1.0,5.0,30.0,15.0,5.0,15.0,30.0,30.0,60.0,RR,60.094826636662326,
14.0,0.0,resp1,stim/right_resp_img.png,"[-0.5, 0]",right,stim/gold_coin.png,silver,,,,,training,,,gold,val,,,,,0.0,1.0,1.0,1.0,0.0,0.0,0.0,0.0,,,,,,,,,1.0,training_resp,,23.786163934972137,17.764136245008558,10.0,,right,gold,0.0,270.0,2.0,right,2023_Dec_12_1135,habits_v_MRI,5.0,40.0,1.0,5.0,30.0,15.0,5.0,15.0,30.0,30.0,60.0,RR,60.094826636662326,
14.0,0.0,resp1,stim/right_resp_img.png,"[-0.5, 0]",right,stim/gold_coin.png,silver,,,,,training,,,gold,val,,,,,0.0,1.0,1.0,1.0,0.0,0.0,0.0,0.0,,,,,,,,,1.0,training_resp,,24.686265896074477,18.66413469100371,10.0,,right,gold,0.0,270.0,2.0,right,2023_Dec_12_1135,habits_v_MRI,5.0,40.0,1.0,5.0,30.0,15.0,5.0,15.0,30.0,30.0,60.0,RR,60.094826636662326,
14.0,0.0,resp1,stim/right_resp_img.png,"[-0.5, 0]",right,stim/gold_coin.png,silver,,,,,training,,,gold,val,,,,,0.0,1.0,1.0,1.0,0.0,0.0,0.0,0.0,,,,,,,,,1.0,training_resp,,24.98603361705318,18.964041702914983,10.0,,right,gold,0.0,270.0,2.0,right,2023_Dec_12_1135,habits_v_MRI,5.0,40.0,1.0,5.0,30.0,15.0,5.0,15.0,30.0,30.0,60.0,RR,60.094826636662326,
14.0,0.0,resp1,stim/right_resp_img.png,"[-0.5, 0]",right,stim/gold_coin.png,silver,,,,,training,,,gold,val,,,,,0.0,1.0,1.0,1.0,0.0,0.0,0.0,0.0,,,,,,,,,1.0,training_resp,,25.90274908440188,19.880712890531868,10.0,,right,gold,0.0,270.0,2.0,right,2023_Dec_12_1135,habits_v_MRI,5.0,40.0,1.0,5.0,30.0,15.0,5.0,15.0,30.0,30.0,60.0,RR,60.094826636662326,
14.0,0.0,resp1,stim/right_resp_img.png,"[-0.5, 0]",right,stim/gold_coin.png,silver,,,,,training,,,gold,val,,,,,0.0,1.0,1.0,1.0,0.0,0.0,0.0,0.0,,,,,,,,,1.0,training_resp,,26.186034379526973,20.16399642592296,10.0,,right,gold,0.0,270.0,2.0,right,2023_Dec_12_1135,habits_v_MRI,5.0,40.0,1.0,5.0,30.0,15.0,5.0,15.0,30.0,30.0,60.0,RR,60.094826636662326,
14.0,0.0,resp1,stim/right_resp_img.png,"[-0.5, 0]",right,stim/gold_coin.png,silver,,,,,training,,,gold,val,,,,,0.0,1.0,1.0,1.0,0.0,0.0,0.0,0.0,,,,,,,,,1.0,training_resp,,27.136052516289052,21.11396823031828,10.0,,right,gold,0.0,270.0,2.0,right,2023_Dec_12_1135,habits_v_MRI,5.0,40.0,1.0,5.0,30.0,15.0,5.0,15.0,30.0,30.0,60.0,RR,60.094826636662326,
14.0,0.0,resp1,stim/right_resp_img.png,"[-0.5, 0]",right,stim/gold_coin.png,silver,,,,,training,,,gold,val,,,,,0.0,1.0,1.0,1.0,0.0,0.0,0.0,0.0,,,,,,,,,1.0,training_resp,,27.419370068237185,21.39727669162676,10.0,,right,gold,0.0,270.0,2.0,right,2023_Dec_12_1135,habits_v_MRI,5.0,40.0,1.0,5.0,30.0,15.0,5.0,15.0,30.0,30.0,60.0,RR,60.094826636662326,
14.0,0.0,resp1,stim/right_resp_img.png,"[-0.5, 0]",right,stim/gold_coin.png,silver,,,,,training,,,gold,val,,,,,0.0,1.0,1.0,1.0,0.0,0.0,0.0,0.0,,,,,,,,,1.0,training_resp,,28.4191395775415,22.397151769138876,10.0,,right,gold,0.0,270.0,2.0,right,2023_Dec_12_1135,habits_v_MRI,5.0,40.0,1.0,5.0,30.0,15.0,5.0,15.0,30.0,30.0,60.0,RR,60.094826636662326,
14.0,0.0,resp1,stim/right_resp_img.png,"[-0.5, 0]",right,stim/gold_coin.png,silver,,,,,training,,,gold,val,,,,,0.0,1.0,1.0,1.0,0.0,0.0,0.0,0.0,,,,,,,,,1.0,training_resp,,28.652550630737096,22.63051942177117,10.0,,right,gold,0.0,270.0,2.0,right,2023_Dec_12_1135,habits_v_MRI,5.0,40.0,1.0,5.0,30.0,15.0,5.0,15.0,30.0,30.0,60.0,RR,60.094826636662326,
14.0,0.0,resp1,stim/right_resp_img.png,"[-0.5, 0]",right,stim/gold_coin.png,silver,,,,,training,,,gold,val,,,,,0.0,1.0,1.0,1.0,0.0,0.0,0.0,0.0,,,,,,,,,1.0,training_resp,,28.98604681296274,22.963841416407377,10.0,,right,gold,0.0,270.0,2.0,right,2023_Dec_12_1135,habits_v_MRI,5.0,40.0,1.0,5.0,30.0,15.0,5.0,15.0,30.0,30.0,60.0,RR,60.094826636662326,
14.0,0.0,resp1,stim/right_resp_img.png,"[-0.5, 0]",right,stim/gold_coin.png,silver,,,,,training,,,gold,val,,,,,0.0,1.0,1.0,1.0,0.0,0.0,0.0,0.0,,,,,,,,,1.0,training_resp,,30.10243578115478,24.08040310628712,10.0,,right,gold,0.0,270.0,2.0,right,2023_Dec_12_1135,habits_v_MRI,5.0,40.0,1.0,5.0,30.0,15.0,5.0,15.0,30.0,30.0,60.0,RR,60.094826636662326,
14.0,0.0,resp1,stim/right_resp_img.png,"[-0.5, 0]",right,stim/gold_coin.png,silver,,,,,training,,,gold,val,,,,,0.0,1.0,1.0,1.0,0.0,0.0,0.0,0.0,,,,,,,,,1.0,training_resp,,30.452424066141248,24.43038787227124,10.0,,right,gold,0.0,270.0,2.0,right,2023_Dec_12_1135,habits_v_MRI,5.0,40.0,1.0,5.0,30.0,15.0,5.0,15.0,30.0,30.0,60.0,RR,60.094826636662326,
14.0,0.0,resp1,stim/right_resp_img.png,"[-0.5, 0]",right,stim/gold_coin.png,silver,,,,,training,,,gold,val,,,,,0.0,1.0,1.0,1.0,0.0,0.0,0.0,0.0,,,,,,,,,1.0,training_resp,,31.51906283572316,25.49702546838671,10.0,16.0,right,gold,1.0,270.0,2.0,right,2023_Dec_12_1135,habits_v_MRI,5.0,40.0,1.0,5.0,30.0,15.0,5.0,15.0,30.0,30.0,60.0,RR,60.094826636662326,
14.0,0.0,resp1,stim/right_resp_img.png,"[-0.5, 0]",right,stim/gold_coin.png,silver,,,,,training,,,gold,val,,,,,0.0,1.0,1.0,1.0,0.0,0.0,0.0,0.0,,,,,,,,,1.0,training_resp,,32.919047645293176,26.89694635104388,10.0,,right,gold,0.0,270.0,2.0,right,2023_Dec_12_1135,habits_v_MRI,5.0,40.0,1.0,5.0,30.0,15.0,5.0,15.0,30.0,30.0,60.0,RR,60.094826636662326,
14.0,0.0,resp1,stim/right_resp_img.png,"[-0.5, 0]",right,stim/gold_coin.png,silver,,,,,training,,,gold,val,,,,,0.0,1.0,1.0,1.0,0.0,0.0,0.0,0.0,,,,,,,,,1.0,training_resp,,33.33552631735802,27.31350302649662,10.0,,right,gold,0.0,270.0,2.0,right,2023_Dec_12_1135,habits_v_MRI,5.0,40.0,1.0,5.0,30.0,15.0,5.0,15.0,30.0,30.0,60.0,RR,60.094826636662326,
14.0,0.0,resp1,stim/right_resp_img.png,"[-0.5, 0]",right,stim/gold_coin.png,silver,,,,,training,,,gold,val,,,,,0.0,1.0,1.0,1.0,0.0,0.0,0.0,0.0,,,,,,,,,1.0,training_resp,,34.26888930797577,28.246803555171937,10.0,,right,gold,0.0,270.0,2.0,right,2023_Dec_12_1135,habits_v_MRI,5.0,40.0,1.0,5.0,30.0,15.0,5.0,15.0,30.0,30.0,60.0,RR,60.094826636662326,
14.0,0.0,resp1,stim/right_resp_img.png,"[-0.5, 0]",right,stim/gold_coin.png,silver,,,,,training,,,gold,val,,,,,0.0,1.0,1.0,1.0,0.0,0.0,0.0,0.0,,,,,,,,,1.0,training_resp,,34.73545101238415,28.713418923784047,10.0,,right,gold,0.0,270.0,2.0,right,2023_Dec_12_1135,habits_v_MRI,5.0,40.0,1.0,5.0,30.0,15.0,5.0,15.0,30.0,30.0,60.0,RR,60.094826636662326,
14.0,0.0,resp1,stim/right_resp_img.png,"[-0.5, 0]",right,stim/gold_coin.png,silver,,,,,training,,,gold,val,,,,,0.0,1.0,1.0,1.0,0.0,0.0,0.0,0.0,,,,,,,,,1.0,training_resp,,35.768736380618066,29.74668259173632,10.0,,right,gold,0.0,270.0,2.0,right,2023_Dec_12_1135,habits_v_MRI,5.0,40.0,1.0,5.0,30.0,15.0,5.0,15.0,30.0,30.0,60.0,RR,60.094826636662326,
14.0,0.0,resp1,stim/right_resp_img.png,"[-0.5, 0]",right,stim/gold_coin.png,silver,,,,,training,,,gold,val,,,,,0.0,1.0,1.0,1.0,0.0,0.0,0.0,0.0,,,,,,,,,1.0,training_resp,,36.102072157431394,30.08005473110825,10.0,,right,gold,0.0,270.0,2.0,right,2023_Dec_12_1135,habits_v_MRI,5.0,40.0,1.0,5.0,30.0,15.0,5.0,15.0,30.0,30.0,60.0,RR,60.094826636662326,
14.0,0.0,resp1,stim/right_resp_img.png,"[-0.5, 0]",right,stim/gold_coin.png,silver,,,,,training,,,gold,val,,,,,0.0,1.0,1.0,1.0,0.0,0.0,0.0,0.0,,,,,,,,,1.0,training_resp,,36.36894540535286,30.346660539507862,10.0,,right,gold,0.0,270.0,2.0,right,2023_Dec_12_1135,habits_v_MRI,5.0,40.0,1.0,5.0,30.0,15.0,5.0,15.0,30.0,30.0,60.0,RR,60.094826636662326,
14.0,0.0,resp1,stim/right_resp_img.png,"[-0.5, 0]",right,stim/gold_coin.png,silver,,,,,training,,,gold,val,,,,,0.0,1.0,1.0,1.0,0.0,0.0,0.0,0.0,,,,,,,,,1.0,training_resp,,37.73526832042262,31.713189606089145,10.0,,right,gold,0.0,270.0,2.0,right,2023_Dec_12_1135,habits_v_MRI,5.0,40.0,1.0,5.0,30.0,15.0,5.0,15.0,30.0,30.0,60.0,RR,60.094826636662326,
14.0,0.0,resp1,stim/right_resp_img.png,"[-0.5, 0]",right,stim/gold_coin.png,silver,,,,,training,,,gold,val,,,,,0.0,1.0,1.0,1.0,0.0,0.0,0.0,0.0,,,,,,,,,1.0,training_resp,,37.98524713376537,31.96325052762404,10.0,,right,gold,0.0,270.0,2.0,right,2023_Dec_12_1135,habits_v_MRI,5.0,40.0,1.0,5.0,30.0,15.0,5.0,15.0,30.0,30.0,60.0,RR,60.094826636662326,
14.0,0.0,resp1,stim/right_resp_img.png,"[-0.5, 0]",right,stim/gold_coin.png,silver,,,,,training,,,gold,val,,,,,0.0,1.0,1.0,1.0,0.0,0.0,0.0,0.0,,,,,,,,,1.0,training_resp,,38.25195381836966,32.229890352580696,10.0,,right,gold,0.0,270.0,2.0,right,2023_Dec_12_1135,habits_v_MRI,5.0,40.0,1.0,5.0,30.0,15.0,5.0,15.0,30.0,30.0,60.0,RR,60.094826636662326,
14.0,0.0,resp1,stim/right_resp_img.png,"[-0.5, 0]",right,stim/gold_coin.png,silver,,,,,training,,,gold,val,,,,,0.0,1.0,1.0,1.0,0.0,0.0,0.0,0.0,,,,,,,,,1.0,training_resp,,39.25178549578413,33.22976924246177,10.0,,right,gold,0.0,270.0,2.0,right,2023_Dec_12_1135,habits_v_MRI,5.0,40.0,1.0,5.0,30.0,15.0,5.0,15.0,30.0,30.0,60.0,RR,60.094826636662326,
14.0,0.0,resp1,stim/right_resp_img.png,"[-0.5, 0]",right,stim/gold_coin.png,silver,,,,,training,,,gold,val,,,,,0.0,1.0,1.0,1.0,0.0,0.0,0.0,0.0,,,,,,,,,1.0,training_resp,,39.53510510036722,33.51310468232259,10.0,,right,gold,0.0,270.0,2.0,right,2023_Dec_12_1135,habits_v_MRI,5.0,40.0,1.0,5.0,30.0,15.0,5.0,15.0,30.0,30.0,60.0,RR,60.094826636662326,
14.0,0.0,resp1,stim/right_resp_img.png,"[-0.5, 0]",right,stim/gold_coin.png,silver,,,,,training,,,gold,val,,,,,0.0,1.0,1.0,1.0,0.0,0.0,0.0,0.0,,,,,,,,,1.0,training_resp,,40.61847232794389,34.5963859888725,10.0,,right,gold,0.0,270.0,2.0,right,2023_Dec_12_1135,habits_v_MRI,5.0,40.0,1.0,5.0,30.0,15.0,5.0,15.0,30.0,30.0,60.0,RR,60.094826636662326,
14.0,0.0,resp1,stim/right_resp_img.png,"[-0.5, 0]",right,stim/gold_coin.png,silver,,,,,training,,,gold,val,,,,,0.0,1.0,1.0,1.0,0.0,0.0,0.0,0.0,,,,,,,,,1.0,training_resp,,40.918353240937,34.89634431898594,10.0,,right,gold,0.0,270.0,2.0,right,2023_Dec_12_1135,habits_v_MRI,5.0,40.0,1.0,5.0,30.0,15.0,5.0,15.0,30.0,30.0,60.0,RR,60.094826636662326,
14.0,0.0,resp1,stim/right_resp_img.png,"[-0.5, 0]",right,stim/gold_coin.png,silver,,,,,training,,,gold,val,,,,,0.0,1.0,1.0,1.0,0.0,0.0,0.0,0.0,,,,,,,,,1.0,training_resp,,41.851732946466655,35.82967211958021,10.0,,right,gold,0.0,270.0,2.0,right,2023_Dec_12_1135,habits_v_MRI,5.0,40.0,1.0,5.0,30.0,15.0,5.0,15.0,30.0,30.0,60.0,RR,60.094826636662326,
14.0,0.0,resp1,stim/right_resp_img.png,"[-0.5, 0]",right,stim/gold_coin.png,silver,,,,,training,,,gold,val,,,,,0.0,1.0,1.0,1.0,0.0,0.0,0.0,0.0,,,,,,,,,1.0,training_resp,,42.10166571987793,36.07964096218348,10.0,16.0,right,gold,1.0,270.0,2.0,right,2023_Dec_12_1135,habits_v_MRI,5.0,40.0,1.0,5.0,30.0,15.0,5.0,15.0,30.0,30.0,60.0,RR,60.094826636662326,
14.0,0.0,resp1,stim/right_resp_img.png,"[-0.5, 0]",right,stim/gold_coin.png,silver,,,,,training,,,gold,val,,,,,0.0,1.0,1.0,1.0,0.0,0.0,0.0,0.0,,,,,,,,,1.0,training_resp,,43.53485760139301,37.51283284416422,10.0,,right,gold,0.0,270.0,2.0,right,2023_Dec_12_1135,habits_v_MRI,5.0,40.0,1.0,5.0,30.0,15.0,5.0,15.0,30.0,30.0,60.0,RR,60.094826636662326,
14.0,0.0,resp1,stim/right_resp_img.png,"[-0.5, 0]",right,stim/gold_coin.png,silver,,,,,training,,,gold,val,,,,,0.0,1.0,1.0,1.0,0.0,0.0,0.0,0.0,,,,,,,,,1.0,training_resp,,43.75152875948697,37.729522476904094,10.0,,right,gold,0.0,270.0,2.0,right,2023_Dec_12_1135,habits_v_MRI,5.0,40.0,1.0,5.0,30.0,15.0,5.0,15.0,30.0,30.0,60.0,RR,60.094826636662326,
14.0,0.0,resp1,stim/right_resp_img.png,"[-0.5, 0]",right,stim/gold_coin.png,silver,,,,,training,,,gold,val,,,,,0.0,1.0,1.0,1.0,0.0,0.0,0.0,0.0,,,,,,,,,1.0,training_resp,,44.46830504620448,38.44614891521633,10.0,,right,gold,0.0,270.0,2.0,right,2023_Dec_12_1135,habits_v_MRI,5.0,40.0,1.0,5.0,30.0,15.0,5.0,15.0,30.0,30.0,60.0,RR,60.094826636662326,
14.0,0.0,resp1,stim/right_resp_img.png,"[-0.5, 0]",right,stim/gold_coin.png,silver,,,,,training,,,gold,val,,,,,0.0,1.0,1.0,1.0,0.0,0.0,0.0,0.0,,,,,,,,,1.0,training_resp,,44.65161400614306,38.62946080742404,10.0,,right,gold,0.0,270.0,2.0,right,2023_Dec_12_1135,habits_v_MRI,5.0,40.0,1.0,5.0,30.0,15.0,5.0,15.0,30.0,30.0,60.0,RR,60.094826636662326,
14.0,0.0,resp1,stim/right_resp_img.png,"[-0.5, 0]",right,stim/gold_coin.png,silver,,,,,training,,,gold,val,,,,,0.0,1.0,1.0,1.0,0.0,0.0,0.0,0.0,,,,,,,,,1.0,training_resp,,45.251566148363054,39.22942555928603,10.0,,right,gold,0.0,270.0,2.0,right,2023_Dec_12_1135,habits_v_MRI,5.0,40.0,1.0,5.0,30.0,15.0,5.0,15.0,30.0,30.0,60.0,RR,60.094826636662326,
14.0,0.0,resp1,stim/right_resp_img.png,"[-0.5, 0]",right,stim/gold_coin.png,silver,,,,,training,,,gold,val,,,,,0.0,1.0,1.0,1.0,0.0,0.0,0.0,0.0,,,,,,,,,1.0,training_resp,,46.00137795833871,39.97934235073626,10.0,,right,gold,0.0,270.0,2.0,right,2023_Dec_12_1135,habits_v_MRI,5.0,40.0,1.0,5.0,30.0,15.0,5.0,15.0,30.0,30.0,60.0,RR,60.094826636662326,
14.0,0.0,resp1,stim/right_resp_img.png,"[-0.5, 0]",right,stim/gold_coin.png,silver,,,,,training,,,gold,val,,,,,0.0,1.0,1.0,1.0,0.0,0.0,0.0,0.0,,,,,,,,,1.0,training_resp,,46.33465186087415,40.31267255637795,10.0,,right,gold,0.0,270.0,2.0,right,2023_Dec_12_1135,habits_v_MRI,5.0,40.0,1.0,5.0,30.0,15.0,5.0,15.0,30.0,30.0,60.0,RR,60.094826636662326,
14.0,0.0,resp1,stim/right_resp_img.png,"[-0.5, 0]",right,stim/gold_coin.png,silver,,,,,training,,,gold,val,,,,,0.0,1.0,1.0,1.0,0.0,0.0,0.0,0.0,,,,,,,,,1.0,training_resp,,47.06820235168561,41.04592393757776,10.0,,right,gold,0.0,270.0,2.0,right,2023_Dec_12_1135,habits_v_MRI,5.0,40.0,1.0,5.0,30.0,15.0,5.0,15.0,30.0,30.0,60.0,RR,60.094826636662326,
14.0,0.0,resp1,stim/right_resp_img.png,"[-0.5, 0]",right,stim/gold_coin.png,silver,,,,,training,,,gold,val,,,,,0.0,1.0,1.0,1.0,0.0,0.0,0.0,0.0,,,,,,,,,1.0,training_resp,,47.31793278641999,41.29594145901501,10.0,,right,gold,0.0,270.0,2.0,right,2023_Dec_12_1135,habits_v_MRI,5.0,40.0,1.0,5.0,30.0,15.0,5.0,15.0,30.0,30.0,60.0,RR,60.094826636662326,
14.0,0.0,resp1,stim/right_resp_img.png,"[-0.5, 0]",right,stim/gold_coin.png,silver,,,,,training,,,gold,val,,,,,0.0,1.0,1.0,1.0,0.0,0.0,0.0,0.0,,,,,,,,,1.0,training_resp,,47.93479402596131,41.91271413862705,10.0,,right,gold,0.0,270.0,2.0,right,2023_Dec_12_1135,habits_v_MRI,5.0,40.0,1.0,5.0,30.0,15.0,5.0,15.0,30.0,30.0,60.0,RR,60.094826636662326,
14.0,0.0,resp1,stim/right_resp_img.png,"[-0.5, 0]",right,stim/gold_coin.png,silver,,,,,training,,,gold,val,,,,,0.0,1.0,1.0,1.0,0.0,0.0,0.0,0.0,,,,,,,,,1.0,training_resp,,48.73460412025452,42.71254153456539,10.0,,right,gold,0.0,270.0,2.0,right,2023_Dec_12_1135,habits_v_MRI,5.0,40.0,1.0,5.0,30.0,15.0,5.0,15.0,30.0,30.0,60.0,RR,60.094826636662326,
14.0,0.0,resp1,stim/right_resp_img.png,"[-0.5, 0]",right,stim/gold_coin.png,silver,,,,,training,,,gold,val,,,,,0.0,1.0,1.0,1.0,0.0,0.0,0.0,0.0,,,,,,,,,1.0,training_resp,,48.95108965458349,42.9291367419064,10.0,,right,gold,0.0,270.0,2.0,right,2023_Dec_12_1135,habits_v_MRI,5.0,40.0,1.0,5.0,30.0,15.0,5.0,15.0,30.0,30.0,60.0,RR,60.094826636662326,
14.0,0.0,resp1,stim/right_resp_img.png,"[-0.5, 0]",right,stim/gold_coin.png,silver,,,,,training,,,gold,val,,,,,0.0,1.0,1.0,1.0,0.0,0.0,0.0,0.0,,,,,,,,,1.0,training_resp,,49.58456117473543,43.56251706322655,10.0,,right,gold,0.0,270.0,2.0,right,2023_Dec_12_1135,habits_v_MRI,5.0,40.0,1.0,5.0,30.0,15.0,5.0,15.0,30.0,30.0,60.0,RR,60.094826636662326,
14.0,0.0,resp1,stim/right_resp_img.png,"[-0.5, 0]",right,stim/gold_coin.png,silver,,,,,training,,,gold,val,,,,,0.0,1.0,1.0,1.0,0.0,0.0,0.0,0.0,,,,,,,,,1.0,training_resp,,49.78454111656174,43.76250462932512,10.0,,right,gold,0.0,270.0,2.0,right,2023_Dec_12_1135,habits_v_MRI,5.0,40.0,1.0,5.0,30.0,15.0,5.0,15.0,30.0,30.0,60.0,RR,60.094826636662326,
14.0,0.0,resp1,stim/right_resp_img.png,"[-0.5, 0]",right,stim/gold_coin.png,silver,,,,,training,,,gold,val,,,,,0.0,1.0,1.0,1.0,0.0,0.0,0.0,0.0,,,,,,,,,1.0,training_resp,,50.401407634839416,44.3790711578913,10.0,,right,gold,0.0,270.0,2.0,right,2023_Dec_12_1135,habits_v_MRI,5.0,40.0,1.0,5.0,30.0,15.0,5.0,15.0,30.0,30.0,60.0,RR,60.094826636662326,
14.0,0.0,resp1,stim/right_resp_img.png,"[-0.5, 0]",right,stim/gold_coin.png,silver,,,,,training,,,gold,val,,,,,0.0,1.0,1.0,1.0,0.0,0.0,0.0,0.0,,,,,,,,,1.0,training_resp,,51.15117105934769,45.1290990896523,10.0,13.0,right,gold,1.0,270.0,2.0,right,2023_Dec_12_1135,habits_v_MRI,5.0,40.0,1.0,5.0,30.0,15.0,5.0,15.0,30.0,30.0,60.0,RR,60.094826636662326,
14.0,0.0,resp1,stim/right_resp_img.png,"[-0.5, 0]",right,stim/gold_coin.png,silver,,,,,training,,,gold,val,,,,,0.0,1.0,1.0,1.0,0.0,0.0,0.0,0.0,,,,,,,,,1.0,training_resp,,52.184354085009545,46.16225513676181,10.0,,right,gold,0.0,270.0,2.0,right,2023_Dec_12_1135,habits_v_MRI,5.0,40.0,1.0,5.0,30.0,15.0,5.0,15.0,30.0,30.0,60.0,RR,60.094826636662326,
14.0,0.0,resp1,stim/right_resp_img.png,"[-0.5, 0]",right,stim/gold_coin.png,silver,,,,,training,,,gold,val,,,,,0.0,1.0,1.0,1.0,0.0,0.0,0.0,0.0,,,,,,,,,1.0,training_resp,,52.384151922073215,46.36220546066761,10.0,,right,gold,0.0,270.0,2.0,right,2023_Dec_12_1135,habits_v_MRI,5.0,40.0,1.0,5.0,30.0,15.0,5.0,15.0,30.0,30.0,60.0,RR,60.094826636662326,
14.0,0.0,resp1,stim/right_resp_img.png,"[-0.5, 0]",right,stim/gold_coin.png,silver,,,,,training,,,gold,val,,,,,0.0,1.0,1.0,1.0,0.0,0.0,0.0,0.0,,,,,,,,,1.0,training_resp,,52.91785032581538,46.89558158861473,10.0,,right,gold,0.0,270.0,2.0,right,2023_Dec_12_1135,habits_v_MRI,5.0,40.0,1.0,5.0,30.0,15.0,5.0,15.0,30.0,30.0,60.0,RR,60.094826636662326,
14.0,0.0,resp1,stim/right_resp_img.png,"[-0.5, 0]",right,stim/gold_coin.png,silver,,,,,training,,,gold,val,,,,,0.0,1.0,1.0,1.0,0.0,0.0,0.0,0.0,,,,,,,,,1.0,training_resp,,53.5509549966082,47.52888859808445,10.0,,right,gold,0.0,270.0,2.0,right,2023_Dec_12_1135,habits_v_MRI,5.0,40.0,1.0,5.0,30.0,15.0,5.0,15.0,30.0,30.0,60.0,RR,60.094826636662326,
14.0,0.0,resp1,stim/right_resp_img.png,"[-0.5, 0]",right,stim/gold_coin.png,silver,,,,,training,,,gold,val,,,,,0.0,1.0,1.0,1.0,0.0,0.0,0.0,0.0,,,,,,,,,1.0,training_resp,,54.1175335040316,48.09547150414437,10.0,,right,gold,0.0,270.0,2.0,right,2023_Dec_12_1135,habits_v_MRI,5.0,40.0,1.0,5.0,30.0,15.0,5.0,15.0,30.0,30.0,60.0,RR,60.094826636662326,
14.0,0.0,resp1,stim/right_resp_img.png,"[-0.5, 0]",right,stim/gold_coin.png,silver,,,,,training,,,gold,val,,,,,0.0,1.0,1.0,1.0,0.0,0.0,0.0,0.0,,,,,,,,,1.0,training_resp,,54.66750554274768,48.64538987958804,10.0,,right,gold,0.0,270.0,2.0,right,2023_Dec_12_1135,habits_v_MRI,5.0,40.0,1.0,5.0,30.0,15.0,5.0,15.0,30.0,30.0,60.0,RR,60.094826636662326,
14.0,0.0,resp1,stim/right_resp_img.png,"[-0.5, 0]",right,stim/gold_coin.png,silver,,,,,training,,,gold,val,,,,,0.0,1.0,1.0,1.0,0.0,0.0,0.0,0.0,,,,,,,,,1.0,training_resp,,55.25083596818149,49.22876869002357,10.0,,right,gold,0.0,270.0,2.0,right,2023_Dec_12_1135,habits_v_MRI,5.0,40.0,1.0,5.0,30.0,15.0,5.0,15.0,30.0,30.0,60.0,RR,60.094826636662326,
14.0,0.0,resp1,stim/right_resp_img.png,"[-0.5, 0]",right,stim/gold_coin.png,silver,,,,,training,,,gold,val,,,,,0.0,1.0,1.0,1.0,0.0,0.0,0.0,0.0,,,,,,,,,1.0,training_resp,,55.83412211341784,49.812146914657205,10.0,,right,gold,0.0,270.0,2.0,right,2023_Dec_12_1135,habits_v_MRI,5.0,40.0,1.0,5.0,30.0,15.0,5.0,15.0,30.0,30.0,60.0,RR,60.094826636662326,
14.0,0.0,resp1,stim/right_resp_img.png,"[-0.5, 0]",right,stim/gold_coin.png,silver,,,,,training,,,gold,val,,,,,0.0,1.0,1.0,1.0,0.0,0.0,0.0,0.0,,,,,,,,,1.0,training_resp,,56.40084225824103,50.378677329514176,10.0,,right,gold,0.0,270.0,2.0,right,2023_Dec_12_1135,habits_v_MRI,5.0,40.0,1.0,5.0,30.0,15.0,5.0,15.0,30.0,30.0,60.0,RR,60.094826636662326,
14.0,0.0,resp1,stim/right_resp_img.png,"[-0.5, 0]",right,stim/gold_coin.png,silver,,,,,training,,,gold,val,,,,,0.0,1.0,1.0,1.0,0.0,0.0,0.0,0.0,,,,,,,,,1.0,training_resp,,56.96735419891775,50.94528809422627,10.0,,right,gold,0.0,270.0,2.0,right,2023_Dec_12_1135,habits_v_MRI,5.0,40.0,1.0,5.0,30.0,15.0,5.0,15.0,30.0,30.0,60.0,RR,60.094826636662326,
14.0,0.0,resp1,stim/right_resp_img.png,"[-0.5, 0]",right,stim/gold_coin.png,silver,,,,,training,,,gold,val,,,,,0.0,1.0,1.0,1.0,0.0,0.0,0.0,0.0,,,,,,,,,1.0,training_resp,,57.5673717353493,51.54525284608826,10.0,,right,gold,0.0,270.0,2.0,right,2023_Dec_12_1135,habits_v_MRI,5.0,40.0,1.0,5.0,30.0,15.0,5.0,15.0,30.0,30.0,60.0,RR,60.094826636662326,
14.0,0.0,resp1,stim/right_resp_img.png,"[-0.5, 0]",right,stim/gold_coin.png,silver,,,,,training,,,gold,val,,,,,0.0,1.0,1.0,1.0,0.0,0.0,0.0,0.0,,,,,,,,,1.0,training_resp,,58.16717989416793,52.14518768712878,10.0,,right,gold,0.0,270.0,2.0,right,2023_Dec_12_1135,habits_v_MRI,5.0,40.0,1.0,5.0,30.0,15.0,5.0,15.0,30.0,30.0,60.0,RR,60.094826636662326,
14.0,0.0,resp1,stim/right_resp_img.png,"[-0.5, 0]",right,stim/gold_coin.png,silver,,,,,training,,,gold,val,,,,,0.0,1.0,1.0,1.0,0.0,0.0,0.0,0.0,,,,,,,,,1.0,ITI_start,18.33333333333333,58.30141194537282,52.278538536746055,,,,,,270.0,2.0,right,2023_Dec_12_1135,habits_v_MRI,5.0,40.0,1.0,5.0,30.0,15.0,5.0,15.0,30.0,30.0,60.0,RR,60.094826636662326,
14.0,1.0,resp2,stim/left_resp_img.png,"[0.5, 0]",left,stim/silver_coin.png,silver,,,,,training,,,silver,deval,,,,,0.0,1.0,1.0,1.0,0.0,1.0,1.0,1.0,,,,,,,,,1.0,training_period_start,60.0,76.66976265003905,0.0,11.0,5.0,,,,270.0,2.0,right,2023_Dec_12_1135,habits_v_MRI,5.0,40.0,1.0,5.0,30.0,15.0,5.0,15.0,30.0,30.0,60.0,RR,60.094826636662326,
14.0,1.0,resp2,stim/left_resp_img.png,"[0.5, 0]",left,stim/silver_coin.png,silver,,,,,training,,,silver,deval,,,,,0.0,1.0,1.0,1.0,0.0,1.0,1.0,1.0,,,,,,,,,1.0,training_resp,,80.13244120357558,3.481321901548654,11.0,,left,silver,0.0,270.0,2.0,right,2023_Dec_12_1135,habits_v_MRI,5.0,40.0,1.0,5.0,30.0,15.0,5.0,15.0,30.0,30.0,60.0,RR,60.094826636662326,
14.0,1.0,resp2,stim/left_resp_img.png,"[0.5, 0]",left,stim/silver_coin.png,silver,,,,,training,,,silver,deval,,,,,0.0,1.0,1.0,1.0,0.0,1.0,1.0,1.0,,,,,,,,,1.0,training_resp,,80.43237255467102,3.781308089848608,11.0,,left,silver,0.0,270.0,2.0,right,2023_Dec_12_1135,habits_v_MRI,5.0,40.0,1.0,5.0,30.0,15.0,5.0,15.0,30.0,30.0,60.0,RR,60.094826636662326,
14.0,1.0,resp2,stim/left_resp_img.png,"[0.5, 0]",left,stim/silver_coin.png,silver,,,,,training,,,silver,deval,,,,,0.0,1.0,1.0,1.0,0.0,1.0,1.0,1.0,,,,,,,,,1.0,training_resp,,81.1159578980878,4.464816016610712,11.0,,left,silver,0.0,270.0,2.0,right,2023_Dec_12_1135,habits_v_MRI,5.0,40.0,1.0,5.0,30.0,15.0,5.0,15.0,30.0,30.0,60.0,RR,60.094826636662326,
14.0,1.0,resp2,stim/left_resp_img.png,"[0.5, 0]",left,stim/silver_coin.png,silver,,,,,training,,,silver,deval,,,,,0.0,1.0,1.0,1.0,0.0,1.0,1.0,1.0,,,,,,,,,1.0,training_resp,,81.29923987947404,4.647986564785242,11.0,,left,silver,0.0,270.0,2.0,right,2023_Dec_12_1135,habits_v_MRI,5.0,40.0,1.0,5.0,30.0,15.0,5.0,15.0,30.0,30.0,60.0,RR,60.094826636662326,
14.0,1.0,resp2,stim/left_resp_img.png,"[0.5, 0]",left,stim/silver_coin.png,silver,,,,,training,,,silver,deval,,,,,0.0,1.0,1.0,1.0,0.0,1.0,1.0,1.0,,,,,,,,,1.0,training_resp,,82.18242218671367,5.531228107400239,11.0,8.0,left,silver,1.0,270.0,2.0,right,2023_Dec_12_1135,habits_v_MRI,5.0,40.0,1.0,5.0,30.0,15.0,5.0,15.0,30.0,30.0,60.0,RR,60.094826636662326,
14.0,1.0,resp2,stim/left_resp_img.png,"[0.5, 0]",left,stim/silver_coin.png,silver,,,,,training,,,silver,deval,,,,,0.0,1.0,1.0,1.0,0.0,1.0,1.0,1.0,,,,,,,,,1.0,training_resp,,83.28220234066248,6.631127318833023,11.0,,left,silver,0.0,270.0,2.0,right,2023_Dec_12_1135,habits_v_MRI,5.0,40.0,1.0,5.0,30.0,15.0,5.0,15.0,30.0,30.0,60.0,RR,60.094826636662326,
14.0,1.0,resp2,stim/left_resp_img.png,"[0.5, 0]",left,stim/silver_coin.png,silver,,,,,training,,,silver,deval,,,,,0.0,1.0,1.0,1.0,0.0,1.0,1.0,1.0,,,,,,,,,1.0,training_resp,,83.49903742270544,6.847779123112559,11.0,,left,silver,0.0,270.0,2.0,right,2023_Dec_12_1135,habits_v_MRI,5.0,40.0,1.0,5.0,30.0,15.0,5.0,15.0,30.0,30.0,60.0,RR,60.094826636662326,
14.0,1.0,resp2,stim/left_resp_img.png,"[0.5, 0]",left,stim/silver_coin.png,silver,,,,,training,,,silver,deval,,,,,0.0,1.0,1.0,1.0,0.0,1.0,1.0,1.0,,,,,,,,,1.0,training_resp,,84.24885333841667,7.597748698666692,11.0,,left,silver,0.0,270.0,2.0,right,2023_Dec_12_1135,habits_v_MRI,5.0,40.0,1.0,5.0,30.0,15.0,5.0,15.0,30.0,30.0,60.0,RR,60.094826636662326,
14.0,1.0,resp2,stim/left_resp_img.png,"[0.5, 0]",left,stim/silver_coin.png,silver,,,,,training,,,silver,deval,,,,,0.0,1.0,1.0,1.0,0.0,1.0,1.0,1.0,,,,,,,,,1.0,training_resp,,84.48221717868,7.831088493112475,11.0,,left,silver,0.0,270.0,2.0,right,2023_Dec_12_1135,habits_v_MRI,5.0,40.0,1.0,5.0,30.0,15.0,5.0,15.0,30.0,30.0,60.0,RR,60.094826636662326,
14.0,1.0,resp2,stim/left_resp_img.png,"[0.5, 0]",left,stim/silver_coin.png,silver,,,,,training,,,silver,deval,,,,,0.0,1.0,1.0,1.0,0.0,1.0,1.0,1.0,,,,,,,,,1.0,training_resp,,85.09871538123116,8.447655608411878,11.0,,left,silver,0.0,270.0,2.0,right,2023_Dec_12_1135,habits_v_MRI,5.0,40.0,1.0,5.0,30.0,15.0,5.0,15.0,30.0,30.0,60.0,RR,60.094826636662326,
14.0,1.0,resp2,stim/left_resp_img.png,"[0.5, 0]",left,stim/silver_coin.png,silver,,,,,training,,,silver,deval,,,,,0.0,1.0,1.0,1.0,0.0,1.0,1.0,1.0,,,,,,,,,1.0,training_resp,,85.29864576458931,8.647604759316891,11.0,,left,silver,0.0,270.0,2.0,right,2023_Dec_12_1135,habits_v_MRI,5.0,40.0,1.0,5.0,30.0,15.0,5.0,15.0,30.0,30.0,60.0,RR,60.094826636662326,
14.0,1.0,resp2,stim/left_resp_img.png,"[0.5, 0]",left,stim/silver_coin.png,silver,,,,,training,,,silver,deval,,,,,0.0,1.0,1.0,1.0,0.0,1.0,1.0,1.0,,,,,,,,,1.0,training_resp,,86.01544375158846,9.364318877924234,11.0,,left,silver,0.0,270.0,2.0,right,2023_Dec_12_1135,habits_v_MRI,5.0,40.0,1.0,5.0,30.0,15.0,5.0,15.0,30.0,30.0,60.0,RR,60.094826636662326,
14.0,1.0,resp2,stim/left_resp_img.png,"[0.5, 0]",left,stim/silver_coin.png,silver,,,,,training,,,silver,deval,,,,,0.0,1.0,1.0,1.0,0.0,1.0,1.0,1.0,,,,,,,,,1.0,training_resp,,86.21550697507337,9.564419344067574,11.0,14.0,left,silver,1.0,270.0,2.0,right,2023_Dec_12_1135,habits_v_MRI,5.0,40.0,1.0,5.0,30.0,15.0,5.0,15.0,30.0,30.0,60.0,RR,60.094826636662326,
14.0,1.0,resp2,stim/left_resp_img.png,"[0.5, 0]",left,stim/silver_coin.png,silver,,,,,training,,,silver,deval,,,,,0.0,1.0,1.0,1.0,0.0,1.0,1.0,1.0,,,,,,,,,1.0,training_resp,,86.96542669925839,10.314247575588524,11.0,,left,silver,0.0,270.0,2.0,right,2023_Dec_12_1135,habits_v_MRI,5.0,40.0,1.0,5.0,30.0,15.0,5.0,15.0,30.0,30.0,60.0,RR,60.094826636662326,
14.0,1.0,resp2,stim/left_resp_img.png,"[0.5, 0]",left,stim/silver_coin.png,silver,,,,,training,,,silver,deval,,,,,0.0,1.0,1.0,1.0,0.0,1.0,1.0,1.0,,,,,,,,,1.0,training_resp,,87.13212097994983,10.480905493721366,11.0,,left,silver,0.0,270.0,2.0,right,2023_Dec_12_1135,habits_v_MRI,5.0,40.0,1.0,5.0,30.0,15.0,5.0,15.0,30.0,30.0,60.0,RR,60.094826636662326,
14.0,1.0,resp2,stim/left_resp_img.png,"[0.5, 0]",left,stim/silver_coin.png,silver,,,,,training,,,silver,deval,,,,,0.0,1.0,1.0,1.0,0.0,1.0,1.0,1.0,,,,,,,,,1.0,training_resp,,87.89859086927027,11.247497959528118,11.0,,left,silver,0.0,270.0,2.0,right,2023_Dec_12_1135,habits_v_MRI,5.0,40.0,1.0,5.0,30.0,15.0,5.0,15.0,30.0,30.0,60.0,RR,60.094826636662326,
14.0,1.0,resp2,stim/left_resp_img.png,"[0.5, 0]",left,stim/silver_coin.png,silver,,,,,training,,,silver,deval,,,,,0.0,1.0,1.0,1.0,0.0,1.0,1.0,1.0,,,,,,,,,1.0,training_resp,,88.13192919781432,11.480783503968269,11.0,,left,silver,0.0,270.0,2.0,right,2023_Dec_12_1135,habits_v_MRI,5.0,40.0,1.0,5.0,30.0,15.0,5.0,15.0,30.0,30.0,60.0,RR,60.094826636662326,
14.0,1.0,resp2,stim/left_resp_img.png,"[0.5, 0]",left,stim/silver_coin.png,silver,,,,,training,,,silver,deval,,,,,0.0,1.0,1.0,1.0,0.0,1.0,1.0,1.0,,,,,,,,,1.0,training_resp,,88.88197765639052,12.23079706635326,11.0,,left,silver,0.0,270.0,2.0,right,2023_Dec_12_1135,habits_v_MRI,5.0,40.0,1.0,5.0,30.0,15.0,5.0,15.0,30.0,30.0,60.0,RR,60.094826636662326,
14.0,1.0,resp2,stim/left_resp_img.png,"[0.5, 0]",left,stim/silver_coin.png,silver,,,,,training,,,silver,deval,,,,,0.0,1.0,1.0,1.0,0.0,1.0,1.0,1.0,,,,,,,,,1.0,training_resp,,89.14856352424249,12.497434545308352,11.0,,left,silver,0.0,270.0,2.0,right,2023_Dec_12_1135,habits_v_MRI,5.0,40.0,1.0,5.0,30.0,15.0,5.0,15.0,30.0,30.0,60.0,RR,60.094826636662326,
14.0,1.0,resp2,stim/left_resp_img.png,"[0.5, 0]",left,stim/silver_coin.png,silver,,,,,training,,,silver,deval,,,,,0.0,1.0,1.0,1.0,0.0,1.0,1.0,1.0,,,,,,,,,1.0,training_resp,,89.94854252785444,13.29740357864648,11.0,,left,silver,0.0,270.0,2.0,right,2023_Dec_12_1135,habits_v_MRI,5.0,40.0,1.0,5.0,30.0,15.0,5.0,15.0,30.0,30.0,60.0,RR,60.094826636662326,
14.0,1.0,resp2,stim/left_resp_img.png,"[0.5, 0]",left,stim/silver_coin.png,silver,,,,,training,,,silver,deval,,,,,0.0,1.0,1.0,1.0,0.0,1.0,1.0,1.0,,,,,,,,,1.0,training_resp,,90.33167600957675,13.680618876125664,11.0,,left,silver,0.0,270.0,2.0,right,2023_Dec_12_1135,habits_v_MRI,5.0,40.0,1.0,5.0,30.0,15.0,5.0,15.0,30.0,30.0,60.0,RR,60.094826636662326,
14.0,1.0,resp2,stim/left_resp_img.png,"[0.5, 0]",left,stim/silver_coin.png,silver,,,,,training,,,silver,deval,,,,,0.0,1.0,1.0,1.0,0.0,1.0,1.0,1.0,,,,,,,,,1.0,training_resp,,91.0650681485422,14.413954418618232,11.0,,left,silver,0.0,270.0,2.0,right,2023_Dec_12_1135,habits_v_MRI,5.0,40.0,1.0,5.0,30.0,15.0,5.0,15.0,30.0,30.0,60.0,RR,60.094826636662326,
14.0,1.0,resp2,stim/left_resp_img.png,"[0.5, 0]",left,stim/silver_coin.png,silver,,,,,training,,,silver,deval,,,,,0.0,1.0,1.0,1.0,0.0,1.0,1.0,1.0,,,,,,,,,1.0,training_resp,,91.365109173581,14.713966119103134,11.0,,left,silver,0.0,270.0,2.0,right,2023_Dec_12_1135,habits_v_MRI,5.0,40.0,1.0,5.0,30.0,15.0,5.0,15.0,30.0,30.0,60.0,RR,60.094826636662326,
14.0,1.0,resp2,stim/left_resp_img.png,"[0.5, 0]",left,stim/silver_coin.png,silver,,,,,training,,,silver,deval,,,,,0.0,1.0,1.0,1.0,0.0,1.0,1.0,1.0,,,,,,,,,1.0,training_resp,,92.1150007462129,15.463884083554149,11.0,,left,silver,0.0,270.0,2.0,right,2023_Dec_12_1135,habits_v_MRI,5.0,40.0,1.0,5.0,30.0,15.0,5.0,15.0,30.0,30.0,60.0,RR,60.094826636662326,
14.0,1.0,resp2,stim/left_resp_img.png,"[0.5, 0]",left,stim/silver_coin.png,silver,,,,,training,,,silver,deval,,,,,0.0,1.0,1.0,1.0,0.0,1.0,1.0,1.0,,,,,,,,,1.0,training_resp,,92.2984308162704,15.64725257223472,11.0,,left,silver,0.0,270.0,2.0,right,2023_Dec_12_1135,habits_v_MRI,5.0,40.0,1.0,5.0,30.0,15.0,5.0,15.0,30.0,30.0,60.0,RR,60.094826636662326,
14.0,1.0,resp2,stim/left_resp_img.png,"[0.5, 0]",left,stim/silver_coin.png,silver,,,,,training,,,silver,deval,,,,,0.0,1.0,1.0,1.0,0.0,1.0,1.0,1.0,,,,,,,,,1.0,training_resp,,93.03159569017588,16.380481373518705,11.0,,left,silver,0.0,270.0,2.0,right,2023_Dec_12_1135,habits_v_MRI,5.0,40.0,1.0,5.0,30.0,15.0,5.0,15.0,30.0,30.0,60.0,RR,60.094826636662326,
14.0,1.0,resp2,stim/left_resp_img.png,"[0.5, 0]",left,stim/silver_coin.png,silver,,,,,training,,,silver,deval,,,,,0.0,1.0,1.0,1.0,0.0,1.0,1.0,1.0,,,,,,,,,1.0,training_resp,,93.23173662368208,16.5805806661956,11.0,11.0,left,silver,1.0,270.0,2.0,right,2023_Dec_12_1135,habits_v_MRI,5.0,40.0,1.0,5.0,30.0,15.0,5.0,15.0,30.0,30.0,60.0,RR,60.094826636662326,
14.0,1.0,resp2,stim/left_resp_img.png,"[0.5, 0]",left,stim/silver_coin.png,silver,,,,,training,,,silver,deval,,,,,0.0,1.0,1.0,1.0,0.0,1.0,1.0,1.0,,,,,,,,,1.0,training_resp,,94.03148425696418,17.380390760488808,11.0,,left,silver,0.0,270.0,2.0,right,2023_Dec_12_1135,habits_v_MRI,5.0,40.0,1.0,5.0,30.0,15.0,5.0,15.0,30.0,30.0,60.0,RR,60.094826636662326,
14.0,1.0,resp2,stim/left_resp_img.png,"[0.5, 0]",left,stim/silver_coin.png,silver,,,,,training,,,silver,deval,,,,,0.0,1.0,1.0,1.0,0.0,1.0,1.0,1.0,,,,,,,,,1.0,training_resp,,94.26510673947632,17.613859583158046,11.0,,left,silver,0.0,270.0,2.0,right,2023_Dec_12_1135,habits_v_MRI,5.0,40.0,1.0,5.0,30.0,15.0,5.0,15.0,30.0,30.0,60.0,RR,60.094826636662326,
14.0,1.0,resp2,stim/left_resp_img.png,"[0.5, 0]",left,stim/silver_coin.png,silver,,,,,training,,,silver,deval,,,,,0.0,1.0,1.0,1.0,0.0,1.0,1.0,1.0,,,,,,,,,1.0,training_resp,,94.93149208649992,18.28037835657597,11.0,,left,silver,0.0,270.0,2.0,right,2023_Dec_12_1135,habits_v_MRI,5.0,40.0,1.0,5.0,30.0,15.0,5.0,15.0,30.0,30.0,60.0,RR,60.094826636662326,
14.0,1.0,resp2,stim/left_resp_img.png,"[0.5, 0]",left,stim/silver_coin.png,silver,,,,,training,,,silver,deval,,,,,0.0,1.0,1.0,1.0,0.0,1.0,1.0,1.0,,,,,,,,,1.0,training_resp,,95.13148023933172,18.480368562042717,11.0,,left,silver,0.0,270.0,2.0,right,2023_Dec_12_1135,habits_v_MRI,5.0,40.0,1.0,5.0,30.0,15.0,5.0,15.0,30.0,30.0,60.0,RR,60.094826636662326,
14.0,1.0,resp2,stim/left_resp_img.png,"[0.5, 0]",left,stim/silver_coin.png,silver,,,,,training,,,silver,deval,,,,,0.0,1.0,1.0,1.0,0.0,1.0,1.0,1.0,,,,,,,,,1.0,training_resp,,95.848129844293,19.196973593439907,11.0,,left,silver,0.0,270.0,2.0,right,2023_Dec_12_1135,habits_v_MRI,5.0,40.0,1.0,5.0,30.0,15.0,5.0,15.0,30.0,30.0,60.0,RR,60.094826636662326,
14.0,1.0,resp2,stim/left_resp_img.png,"[0.5, 0]",left,stim/silver_coin.png,silver,,,,,training,,,silver,deval,,,,,0.0,1.0,1.0,1.0,0.0,1.0,1.0,1.0,,,,,,,,,1.0,training_resp,,96.11470896750689,19.46362162940204,11.0,,left,silver,0.0,270.0,2.0,right,2023_Dec_12_1135,habits_v_MRI,5.0,40.0,1.0,5.0,30.0,15.0,5.0,15.0,30.0,30.0,60.0,RR,60.094826636662326,
14.0,1.0,resp2,stim/left_resp_img.png,"[0.5, 0]",left,stim/silver_coin.png,silver,,,,,training,,,silver,deval,,,,,0.0,1.0,1.0,1.0,0.0,1.0,1.0,1.0,,,,,,,,,1.0,training_resp,,96.81468524364756,20.163607289548963,11.0,,left,silver,0.0,270.0,2.0,right,2023_Dec_12_1135,habits_v_MRI,5.0,40.0,1.0,5.0,30.0,15.0,5.0,15.0,30.0,30.0,60.0,RR,60.094826636662326,
14.0,1.0,resp2,stim/left_resp_img.png,"[0.5, 0]",left,stim/silver_coin.png,silver,,,,,training,,,silver,deval,,,,,0.0,1.0,1.0,1.0,0.0,1.0,1.0,1.0,,,,,,,,,1.0,training_resp,,97.08148693991824,20.430228053592145,11.0,,left,silver,0.0,270.0,2.0,right,2023_Dec_12_1135,habits_v_MRI,5.0,40.0,1.0,5.0,30.0,15.0,5.0,15.0,30.0,30.0,60.0,RR,60.094826636662326,
14.0,1.0,resp2,stim/left_resp_img.png,"[0.5, 0]",left,stim/silver_coin.png,silver,,,,,training,,,silver,deval,,,,,0.0,1.0,1.0,1.0,0.0,1.0,1.0,1.0,,,,,,,,,1.0,training_resp,,97.6980669577606,21.046917744912207,11.0,,left,silver,0.0,270.0,2.0,right,2023_Dec_12_1135,habits_v_MRI,5.0,40.0,1.0,5.0,30.0,15.0,5.0,15.0,30.0,30.0,60.0,RR,60.094826636662326,
14.0,1.0,resp2,stim/left_resp_img.png,"[0.5, 0]",left,stim/silver_coin.png,silver,,,,,training,,,silver,deval,,,,,0.0,1.0,1.0,1.0,0.0,1.0,1.0,1.0,,,,,,,,,1.0,training_resp,,97.914597065188,21.26348538743332,11.0,,left,silver,0.0,270.0,2.0,right,2023_Dec_12_1135,habits_v_MRI,5.0,40.0,1.0,5.0,30.0,15.0,5.0,15.0,30.0,30.0,60.0,RR,60.094826636662326,
14.0,1.0,resp2,stim/left_resp_img.png,"[0.5, 0]",left,stim/silver_coin.png,silver,,,,,training,,,silver,deval,,,,,0.0,1.0,1.0,1.0,0.0,1.0,1.0,1.0,,,,,,,,,1.0,training_resp,,98.44799371948466,21.79686444764957,11.0,8.0,left,silver,1.0,270.0,2.0,right,2023_Dec_12_1135,habits_v_MRI,5.0,40.0,1.0,5.0,30.0,15.0,5.0,15.0,30.0,30.0,60.0,RR,60.094826636662326,
14.0,1.0,resp2,stim/left_resp_img.png,"[0.5, 0]",left,stim/silver_coin.png,silver,,,,,training,,,silver,deval,,,,,0.0,1.0,1.0,1.0,0.0,1.0,1.0,1.0,,,,,,,,,1.0,training_resp,,99.29786397330464,22.64676871802658,11.0,,left,silver,0.0,270.0,2.0,right,2023_Dec_12_1135,habits_v_MRI,5.0,40.0,1.0,5.0,30.0,15.0,5.0,15.0,30.0,30.0,60.0,RR,60.094826636662326,
14.0,1.0,resp2,stim/left_resp_img.png,"[0.5, 0]",left,stim/silver_coin.png,silver,,,,,training,,,silver,deval,,,,,0.0,1.0,1.0,1.0,0.0,1.0,1.0,1.0,,,,,,,,,1.0,training_resp,,99.4645101618953,22.813407575245947,11.0,,left,silver,0.0,270.0,2.0,right,2023_Dec_12_1135,habits_v_MRI,5.0,40.0,1.0,5.0,30.0,15.0,5.0,15.0,30.0,30.0,60.0,RR,60.094826636662326,
14.0,1.0,resp2,stim/left_resp_img.png,"[0.5, 0]",left,stim/silver_coin.png,silver,,,,,training,,,silver,deval,,,,,0.0,1.0,1.0,1.0,0.0,1.0,1.0,1.0,,,,,,,,,1.0,training_resp,,99.99788306374104,23.346742355264723,11.0,,left,silver,0.0,270.0,2.0,right,2023_Dec_12_1135,habits_v_MRI,5.0,40.0,1.0,5.0,30.0,15.0,5.0,15.0,30.0,30.0,60.0,RR,60.094826636662326,
14.0,1.0,resp2,stim/left_resp_img.png,"[0.5, 0]",left,stim/silver_coin.png,silver,,,,,training,,,silver,deval,,,,,0.0,1.0,1.0,1.0,0.0,1.0,1.0,1.0,,,,,,,,,1.0,training_resp,,100.59782963432372,23.94664904428646,11.0,,left,silver,0.0,270.0,2.0,right,2023_Dec_12_1135,habits_v_MRI,5.0,40.0,1.0,5.0,30.0,15.0,5.0,15.0,30.0,30.0,60.0,RR,60.094826636662326,
14.0,1.0,resp2,stim/left_resp_img.png,"[0.5, 0]",left,stim/silver_coin.png,silver,,,,,training,,,silver,deval,,,,,0.0,1.0,1.0,1.0,0.0,1.0,1.0,1.0,,,,,,,,,1.0,training_resp,,100.78115882817656,24.13004333851859,11.0,,left,silver,0.0,270.0,2.0,right,2023_Dec_12_1135,habits_v_MRI,5.0,40.0,1.0,5.0,30.0,15.0,5.0,15.0,30.0,30.0,60.0,RR,60.094826636662326,
14.0,1.0,resp2,stim/left_resp_img.png,"[0.5, 0]",left,stim/silver_coin.png,silver,,,,,training,,,silver,deval,,,,,0.0,1.0,1.0,1.0,0.0,1.0,1.0,1.0,,,,,,,,,1.0,training_resp,,101.33113731862976,24.68001391133293,11.0,,left,silver,0.0,270.0,2.0,right,2023_Dec_12_1135,habits_v_MRI,5.0,40.0,1.0,5.0,30.0,15.0,5.0,15.0,30.0,30.0,60.0,RR,60.094826636662326,
14.0,1.0,resp2,stim/left_resp_img.png,"[0.5, 0]",left,stim/silver_coin.png,silver,,,,,training,,,silver,deval,,,,,0.0,1.0,1.0,1.0,0.0,1.0,1.0,1.0,,,,,,,,,1.0,training_resp,,101.48108965158464,24.83002078812569,11.0,,left,silver,0.0,270.0,2.0,right,2023_Dec_12_1135,habits_v_MRI,5.0,40.0,1.0,5.0,30.0,15.0,5.0,15.0,30.0,30.0,60.0,RR,60.094826636662326,
14.0,1.0,resp2,stim/left_resp_img.png,"[0.5, 0]",left,stim/silver_coin.png,silver,,,,,training,,,silver,deval,,,,,0.0,1.0,1.0,1.0,0.0,1.0,1.0,1.0,,,,,,,,,1.0,training_resp,,102.0310760596767,25.379933298565447,11.0,13.0,left,silver,1.0,270.0,2.0,right,2023_Dec_12_1135,habits_v_MRI,5.0,40.0,1.0,5.0,30.0,15.0,5.0,15.0,30.0,30.0,60.0,RR,60.094826636662326,
14.0,1.0,resp2,stim/left_resp_img.png,"[0.5, 0]",left,stim/silver_coin.png,silver,,,,,training,,,silver,deval,,,,,0.0,1.0,1.0,1.0,0.0,1.0,1.0,1.0,,,,,,,,,1.0,training_resp,,102.74770161835475,26.096541555598375,11.0,,left,silver,0.0,270.0,2.0,right,2023_Dec_12_1135,habits_v_MRI,5.0,40.0,1.0,5.0,30.0,15.0,5.0,15.0,30.0,30.0,60.0,RR,60.094826636662326,
14.0,1.0,resp2,stim/left_resp_img.png,"[0.5, 0]",left,stim/silver_coin.png,silver,,,,,training,,,silver,deval,,,,,0.0,1.0,1.0,1.0,0.0,1.0,1.0,1.0,,,,,,,,,1.0,training_resp,,103.39759163651615,26.74644711613655,11.0,,left,silver,0.0,270.0,2.0,right,2023_Dec_12_1135,habits_v_MRI,5.0,40.0,1.0,5.0,30.0,15.0,5.0,15.0,30.0,30.0,60.0,RR,60.094826636662326,
14.0,1.0,resp2,stim/left_resp_img.png,"[0.5, 0]",left,stim/silver_coin.png,silver,,,,,training,,,silver,deval,,,,,0.0,1.0,1.0,1.0,0.0,1.0,1.0,1.0,,,,,,,,,1.0,training_resp,,103.63104433054104,26.979878696147352,11.0,,left,silver,0.0,270.0,2.0,right,2023_Dec_12_1135,habits_v_MRI,5.0,40.0,1.0,5.0,30.0,15.0,5.0,15.0,30.0,30.0,60.0,RR,60.094826636662326,
14.0,1.0,resp2,stim/left_resp_img.png,"[0.5, 0]",left,stim/silver_coin.png,silver,,,,,training,,,silver,deval,,,,,0.0,1.0,1.0,1.0,0.0,1.0,1.0,1.0,,,,,,,,,1.0,training_resp,,104.13088905718178,27.47979292180389,11.0,,left,silver,0.0,270.0,2.0,right,2023_Dec_12_1135,habits_v_MRI,5.0,40.0,1.0,5.0,30.0,15.0,5.0,15.0,30.0,30.0,60.0,RR,60.094826636662326,
14.0,1.0,resp2,stim/left_resp_img.png,"[0.5, 0]",left,stim/silver_coin.png,silver,,,,,training,,,silver,deval,,,,,0.0,1.0,1.0,1.0,0.0,1.0,1.0,1.0,,,,,,,,,1.0,training_resp,,104.7474992792122,28.096403437200934,11.0,,left,silver,0.0,270.0,2.0,right,2023_Dec_12_1135,habits_v_MRI,5.0,40.0,1.0,5.0,30.0,15.0,5.0,15.0,30.0,30.0,60.0,RR,60.094826636662326,
14.0,1.0,resp2,stim/left_resp_img.png,"[0.5, 0]",left,stim/silver_coin.png,silver,,,,,training,,,silver,deval,,,,,0.0,1.0,1.0,1.0,0.0,1.0,1.0,1.0,,,,,,,,,1.0,training_resp,,104.91422698972748,28.26307719061151,11.0,,left,silver,0.0,270.0,2.0,right,2023_Dec_12_1135,habits_v_MRI,5.0,40.0,1.0,5.0,30.0,15.0,5.0,15.0,30.0,30.0,60.0,RR,60.094826636662326,
14.0,1.0,resp2,stim/left_resp_img.png,"[0.5, 0]",left,stim/silver_coin.png,silver,,,,,training,,,silver,deval,,,,,0.0,1.0,1.0,1.0,0.0,1.0,1.0,1.0,,,,,,,,,1.0,training_resp,,105.497596709989,28.84642726322636,11.0,,left,silver,0.0,270.0,2.0,right,2023_Dec_12_1135,habits_v_MRI,5.0,40.0,1.0,5.0,30.0,15.0,5.0,15.0,30.0,30.0,60.0,RR,60.094826636662326,
14.0,1.0,resp2,stim/left_resp_img.png,"[0.5, 0]",left,stim/silver_coin.png,silver,,,,,training,,,silver,deval,,,,,0.0,1.0,1.0,1.0,0.0,1.0,1.0,1.0,,,,,,,,,1.0,training_resp,,105.68095082929358,29.02969047660008,11.0,,left,silver,0.0,270.0,2.0,right,2023_Dec_12_1135,habits_v_MRI,5.0,40.0,1.0,5.0,30.0,15.0,5.0,15.0,30.0,30.0,60.0,RR,60.094826636662326,
14.0,1.0,resp2,stim/left_resp_img.png,"[0.5, 0]",left,stim/silver_coin.png,silver,,,,,training,,,silver,deval,,,,,0.0,1.0,1.0,1.0,0.0,1.0,1.0,1.0,,,,,,,,,1.0,training_resp,,106.3141581355594,29.6629716809839,11.0,,left,silver,0.0,270.0,2.0,right,2023_Dec_12_1135,habits_v_MRI,5.0,40.0,1.0,5.0,30.0,15.0,5.0,15.0,30.0,30.0,60.0,RR,60.094826636662326,
14.0,1.0,resp2,stim/left_resp_img.png,"[0.5, 0]",left,stim/silver_coin.png,silver,,,,,training,,,silver,deval,,,,,0.0,1.0,1.0,1.0,0.0,1.0,1.0,1.0,,,,,,,,,1.0,training_resp,,107.04729632427916,30.396196963265535,11.0,,left,silver,0.0,270.0,2.0,right,2023_Dec_12_1135,habits_v_MRI,5.0,40.0,1.0,5.0,30.0,15.0,5.0,15.0,30.0,30.0,60.0,RR,60.094826636662326,
14.0,1.0,resp2,stim/left_resp_img.png,"[0.5, 0]",left,stim/silver_coin.png,silver,,,,,training,,,silver,deval,,,,,0.0,1.0,1.0,1.0,0.0,1.0,1.0,1.0,,,,,,,,,1.0,training_resp,,107.29730446171016,30.64620715333149,11.0,,left,silver,0.0,270.0,2.0,right,2023_Dec_12_1135,habits_v_MRI,5.0,40.0,1.0,5.0,30.0,15.0,5.0,15.0,30.0,30.0,60.0,RR,60.094826636662326,
14.0,1.0,resp2,stim/left_resp_img.png,"[0.5, 0]",left,stim/silver_coin.png,silver,,,,,training,,,silver,deval,,,,,0.0,1.0,1.0,1.0,0.0,1.0,1.0,1.0,,,,,,,,,1.0,training_resp,,107.93059446336702,31.279469296801835,11.0,,left,silver,0.0,270.0,2.0,right,2023_Dec_12_1135,habits_v_MRI,5.0,40.0,1.0,5.0,30.0,15.0,5.0,15.0,30.0,30.0,60.0,RR,60.094826636662326,
14.0,1.0,resp2,stim/left_resp_img.png,"[0.5, 0]",left,stim/silver_coin.png,silver,,,,,training,,,silver,deval,,,,,0.0,1.0,1.0,1.0,0.0,1.0,1.0,1.0,,,,,,,,,1.0,training_resp,,108.56429119594397,31.912817360833287,11.0,23.0,left,silver,1.0,270.0,2.0,right,2023_Dec_12_1135,habits_v_MRI,5.0,40.0,1.0,5.0,30.0,15.0,5.0,15.0,30.0,30.0,60.0,RR,60.094826636662326,
14.0,1.0,resp2,stim/left_resp_img.png,"[0.5, 0]",left,stim/silver_coin.png,silver,,,,,training,,,silver,deval,,,,,0.0,1.0,1.0,1.0,0.0,1.0,1.0,1.0,,,,,,,,,1.0,training_resp,,109.51381932059304,32.86276629194617,11.0,,left,silver,0.0,270.0,2.0,right,2023_Dec_12_1135,habits_v_MRI,5.0,40.0,1.0,5.0,30.0,15.0,5.0,15.0,30.0,30.0,60.0,RR,60.094826636662326,
14.0,1.0,resp2,stim/left_resp_img.png,"[0.5, 0]",left,stim/silver_coin.png,silver,,,,,training,,,silver,deval,,,,,0.0,1.0,1.0,1.0,0.0,1.0,1.0,1.0,,,,,,,,,1.0,training_resp,,110.44725620839743,33.796068287454545,11.0,,left,silver,0.0,270.0,2.0,right,2023_Dec_12_1135,habits_v_MRI,5.0,40.0,1.0,5.0,30.0,15.0,5.0,15.0,30.0,30.0,60.0,RR,60.094826636662326,
14.0,1.0,resp2,stim/left_resp_img.png,"[0.5, 0]",left,stim/silver_coin.png,silver,,,,,training,,,silver,deval,,,,,0.0,1.0,1.0,1.0,0.0,1.0,1.0,1.0,,,,,,,,,1.0,training_resp,,110.597143440973,33.94604906486347,11.0,,left,silver,0.0,270.0,2.0,right,2023_Dec_12_1135,habits_v_MRI,5.0,40.0,1.0,5.0,30.0,15.0,5.0,15.0,30.0,30.0,60.0,RR,60.094826636662326,
14.0,1.0,resp2,stim/left_resp_img.png,"[0.5, 0]",left,stim/silver_coin.png,silver,,,,,training,,,silver,deval,,,,,0.0,1.0,1.0,1.0,0.0,1.0,1.0,1.0,,,,,,,,,1.0,training_resp,,111.6804690277204,35.02931365696713,11.0,,left,silver,0.0,270.0,2.0,right,2023_Dec_12_1135,habits_v_MRI,5.0,40.0,1.0,5.0,30.0,15.0,5.0,15.0,30.0,30.0,60.0,RR,60.094826636662326,
14.0,1.0,resp2,stim/left_resp_img.png,"[0.5, 0]",left,stim/silver_coin.png,silver,,,,,training,,,silver,deval,,,,,0.0,1.0,1.0,1.0,0.0,1.0,1.0,1.0,,,,,,,,,1.0,training_resp,,111.8969255303964,35.245884232223034,11.0,,left,silver,0.0,270.0,2.0,right,2023_Dec_12_1135,habits_v_MRI,5.0,40.0,1.0,5.0,30.0,15.0,5.0,15.0,30.0,30.0,60.0,RR,60.094826636662326,
14.0,1.0,resp2,stim/left_resp_img.png,"[0.5, 0]",left,stim/silver_coin.png,silver,,,,,training,,,silver,deval,,,,,0.0,1.0,1.0,1.0,0.0,1.0,1.0,1.0,,,,,,,,,1.0,training_resp,,112.93042848678306,36.279152592178434,11.0,,left,silver,0.0,270.0,2.0,right,2023_Dec_12_1135,habits_v_MRI,5.0,40.0,1.0,5.0,30.0,15.0,5.0,15.0,30.0,30.0,60.0,RR,60.094826636662326,
14.0,1.0,resp2,stim/left_resp_img.png,"[0.5, 0]",left,stim/silver_coin.png,silver,,,,,training,,,silver,deval,,,,,0.0,1.0,1.0,1.0,0.0,1.0,1.0,1.0,,,,,,,,,1.0,training_resp,,113.89694019267336,37.24581150710583,11.0,,left,silver,0.0,270.0,2.0,right,2023_Dec_12_1135,habits_v_MRI,5.0,40.0,1.0,5.0,30.0,15.0,5.0,15.0,30.0,30.0,60.0,RR,60.094826636662326,
14.0,1.0,resp2,stim/left_resp_img.png,"[0.5, 0]",left,stim/silver_coin.png,silver,,,,,training,,,silver,deval,,,,,0.0,1.0,1.0,1.0,0.0,1.0,1.0,1.0,,,,,,,,,1.0,training_resp,,114.59685576753692,37.94576109852642,11.0,,left,silver,0.0,270.0,2.0,right,2023_Dec_12_1135,habits_v_MRI,5.0,40.0,1.0,5.0,30.0,15.0,5.0,15.0,30.0,30.0,60.0,RR,60.094826636662326,
